T[K]	Re[\chi]	Im[\chi]
 283.13600	  12.46625	  -0.14479
 282.92600	  12.46384	  -0.14105
 282.71700	  12.46122	  -0.13910
 282.50500	  12.45862	  -0.13755
 282.29000	  12.45953	  -0.14124
 282.07100	  12.46795	  -0.14040
 281.84900	  12.45898	  -0.13571
 281.62300	  12.46499	  -0.14157
 281.39500	  12.47864	  -0.14838
 281.16400	  12.45700	  -0.14528
 280.93000	  12.47175	  -0.13678
 280.69100	  12.47847	  -0.13391
 280.44900	  12.46868	  -0.13822
 280.20400	  12.46389	  -0.14159
 279.95700	  12.46805	  -0.14242
 279.70600	  12.46634	  -0.14619
 279.45300	  12.47467	  -0.14306
 279.19800	  12.46161	  -0.14366
 278.93900	  12.46951	  -0.14579
 278.67600	  12.46662	  -0.14128
 278.41000	  12.47278	  -0.13767
 278.14300	  12.47965	  -0.13774
 277.87300	  12.47033	  -0.14038
 277.60100	  12.45829	  -0.13874
 277.32700	  12.46986	  -0.13323
 277.05100	  12.47069	  -0.14228
 276.77200	  12.47534	  -0.13348
 276.49100	  12.47542	  -0.14075
 276.20700	  12.47338	  -0.14798
 275.92100	  12.47846	  -0.13723
 275.63200	  12.46828	  -0.14003
 275.34000	  12.47363	  -0.13324
 275.04600	  12.47030	  -0.13874
 274.75100	  12.47508	  -0.13863
 274.45400	  12.46864	  -0.14488
 274.15700	  12.46879	  -0.13219
 273.85700	  12.47987	  -0.14733
 273.55400	  12.47796	  -0.14480
 273.25000	  12.47644	  -0.13940
 272.94300	  12.47096	  -0.14164
 272.63500	  12.46640	  -0.14980
 272.32400	  12.46797	  -0.15704
 272.01200	  12.48025	  -0.14901
 271.69700	  12.48459	  -0.13957
 271.37800	  12.48192	  -0.13408
 271.05900	  12.47773	  -0.14041
 270.73800	  12.47488	  -0.15426
 270.41500	  12.48406	  -0.13956
 270.09100	  12.48229	  -0.14714
 269.76300	  12.46910	  -0.14742
 269.43300	  12.47735	  -0.14228
 269.10300	  12.46891	  -0.13558
 268.77200	  12.47331	  -0.15390
 268.43800	  12.48342	  -0.15939
 268.10300	  12.47706	  -0.14647
 267.76700	  12.47231	  -0.13760
 267.42800	  12.46665	  -0.14213
 267.08700	  12.46692	  -0.15015
 266.74500	  12.47411	  -0.15127
 266.40200	  12.47915	  -0.15147
 266.05800	  12.47636	  -0.14937
 265.71200	  12.46517	  -0.13995
 265.36500	  12.46595	  -0.14655
 265.01700	  12.47439	  -0.14608
 264.66500	  12.47421	  -0.15397
 264.31300	  12.47958	  -0.14481
 263.96100	  12.47800	  -0.14443
 263.60600	  12.47710	  -0.14317
 263.25100	  12.47652	  -0.13735
 262.89300	  12.47575	  -0.14888
 262.53500	  12.48005	  -0.14694
 262.17600	  12.46980	  -0.14406
 261.81600	  12.46556	  -0.14400
 261.45500	  12.46662	  -0.14314
 261.09300	  12.47234	  -0.14946
 260.72600	  12.46964	  -0.14047
 260.35900	  12.47120	  -0.14461
 259.98900	  12.46773	  -0.14930
 259.61900	  12.46729	  -0.14480
 259.24900	  12.46387	  -0.13652
 258.87700	  12.46635	  -0.14780
 258.50400	  12.47054	  -0.14959
 258.13100	  12.47845	  -0.14260
 257.75700	  12.47590	  -0.15198
 257.38300	  12.47300	  -0.15089
 257.00800	  12.47379	  -0.14815
 256.63100	  12.46809	  -0.14924
 256.25300	  12.46347	  -0.14127
 255.87600	  12.46459	  -0.14961
 255.49800	  12.46609	  -0.14447
 255.11900	  12.47025	  -0.14316
 254.74000	  12.47309	  -0.14929
 254.36000	  12.45597	  -0.14263
 253.98000	  12.45468	  -0.13405
 253.59800	  12.46285	  -0.14130
 253.21700	  12.47028	  -0.14855
 252.83500	  12.46845	  -0.14889
 252.45300	  12.46752	  -0.14701
 252.07000	  12.46770	  -0.15154
 251.68700	  12.45639	  -0.14394
 251.30300	  12.46927	  -0.14379
 250.92000	  12.45654	  -0.15514
 250.53500	  12.46375	  -0.16007
 250.15000	  12.46295	  -0.15198
 249.76500	  12.46906	  -0.13710
 249.38000	  12.45808	  -0.14088
 248.99500	  12.46194	  -0.14363
 248.60900	  12.46418	  -0.14394
 248.22300	  12.45959	  -0.15218
 247.83800	  12.46382	  -0.15121
 247.45100	  12.47102	  -0.14290
 247.06400	  12.45721	  -0.14262
 246.67700	  12.45355	  -0.15135
 246.29000	  12.46283	  -0.13757
 245.90300	  12.46413	  -0.13624
 245.51600	  12.45428	  -0.14840
 245.12900	  12.45497	  -0.16314
 244.74100	  12.45728	  -0.14814
 244.35400	  12.45373	  -0.14473
 243.96600	  12.44322	  -0.14330
 243.57400	  12.44951	  -0.14243
 243.18300	  12.45680	  -0.14828
 242.79100	  12.45543	  -0.15108
 242.40000	  12.43535	  -0.14108
 242.00800	  12.44067	  -0.14097
 241.61600	  12.44168	  -0.15247
 241.22500	  12.44559	  -0.14858
 240.83400	  12.44940	  -0.13918
 240.44200	  12.45473	  -0.14702
 240.05100	  12.45108	  -0.14503
 239.66000	  12.43892	  -0.14446
 239.27000	  12.44253	  -0.14767
 238.88000	  12.45946	  -0.14403
 238.48900	  12.43685	  -0.14733
 238.09900	  12.43608	  -0.15363
 237.70900	  12.44490	  -0.15187
 237.31900	  12.44351	  -0.14611
 236.92900	  12.44492	  -0.15744
 236.54000	  12.44748	  -0.15456
 236.15000	  12.44624	  -0.15701
 235.76100	  12.45315	  -0.16339
 235.37300	  12.43857	  -0.16207
 234.98400	  12.43925	  -0.14903
 234.59700	  12.43446	  -0.14406
 234.20900	  12.43108	  -0.14925
 233.82200	  12.42924	  -0.16091
 233.43500	  12.43545	  -0.15493
 233.04800	  12.43180	  -0.14684
 232.66200	  12.43710	  -0.15081
 232.27600	  12.42890	  -0.15449
 231.89000	  12.43269	  -0.15797
 231.50600	  12.44008	  -0.14567
 231.12200	  12.43542	  -0.14864
 230.73900	  12.42239	  -0.15146
 230.35700	  12.42580	  -0.14642
 229.97500	  12.42848	  -0.15419
 229.59400	  12.43260	  -0.14740
 229.21400	  12.43332	  -0.15593
 228.83400	  12.43347	  -0.15434
 228.45300	  12.42554	  -0.14362
 228.07400	  12.43029	  -0.15024
 227.69200	  12.43277	  -0.15404
 227.31000	  12.42872	  -0.15229
 226.92800	  12.42759	  -0.15067
 226.54600	  12.42692	  -0.16142
 226.16500	  12.42324	  -0.15638
 225.78500	  12.41914	  -0.15727
 225.40500	  12.41897	  -0.15733
 225.02600	  12.42777	  -0.15025
 224.64700	  12.42533	  -0.14474
 224.26800	  12.42628	  -0.14591
 223.88900	  12.42127	  -0.14177
 223.51200	  12.42625	  -0.15634
 223.13400	  12.42048	  -0.15209
 222.75700	  12.41082	  -0.15200
 222.38100	  12.41988	  -0.14938
 222.00500	  12.41695	  -0.14428
 221.63000	  12.41704	  -0.15756
 221.25500	  12.42189	  -0.13922
 220.88100	  12.42072	  -0.14814
 220.50700	  12.40565	  -0.15626
 220.13400	  12.40974	  -0.15235
 219.76100	  12.41804	  -0.14839
 219.39000	  12.41586	  -0.16246
 219.01800	  12.40791	  -0.16498
 218.64800	  12.41867	  -0.15474
 218.27700	  12.41232	  -0.14857
 217.90800	  12.41183	  -0.15394
 217.53800	  12.41364	  -0.15289
 217.16900	  12.40888	  -0.15375
 216.80100	  12.40990	  -0.15390
 216.43300	  12.40508	  -0.14647
 216.06500	  12.41550	  -0.15054
 215.69800	  12.41358	  -0.16168
 215.33300	  12.41563	  -0.14567
 214.96700	  12.41207	  -0.16208
 214.60200	  12.41569	  -0.16232
 214.23600	  12.40272	  -0.15457
 213.87000	  12.40493	  -0.16793
 213.50500	  12.40829	  -0.16017
 213.14000	  12.41081	  -0.15108
 212.77200	  12.40227	  -0.15065
 212.40400	  12.39389	  -0.16209
 212.03700	  12.39993	  -0.16346
 211.67100	  12.40202	  -0.15612
 211.30400	  12.40087	  -0.16258
 210.94000	  12.39048	  -0.14884
 210.57500	  12.40744	  -0.14794
 210.21100	  12.39490	  -0.15909
 209.84800	  12.40028	  -0.16092
 209.48500	  12.40152	  -0.15031
 209.12300	  12.41182	  -0.15259
 208.76200	  12.40892	  -0.15962
 208.40200	  12.39748	  -0.15092
 208.04200	  12.40549	  -0.16768
 207.68300	  12.41152	  -0.15804
 207.32400	  12.40548	  -0.15640
 206.96600	  12.40808	  -0.15712
 206.60900	  12.39894	  -0.15090
 206.25200	  12.39423	  -0.15499
 205.89500	  12.38790	  -0.16167
 205.53900	  12.40532	  -0.15937
 205.18400	  12.39299	  -0.15544
 204.82900	  12.39821	  -0.14780
 204.47600	  12.39220	  -0.15762
 204.12300	  12.39900	  -0.16096
 203.77000	  12.40042	  -0.15404
 203.41800	  12.40127	  -0.14957
 203.06500	  12.39607	  -0.15291
 202.71400	  12.39639	  -0.15128
 202.36400	  12.40637	  -0.14791
 202.01400	  12.39570	  -0.15353
 201.66600	  12.41066	  -0.15232
 201.31700	  12.40395	  -0.16191
 200.97100	  12.39749	  -0.15165
 200.62400	  12.40437	  -0.15423
 200.27800	  12.40379	  -0.15393
 199.93300	  12.39964	  -0.16099
 199.58800	  12.38955	  -0.15993
 199.24400	  12.39335	  -0.16672
 198.90000	  12.39082	  -0.15837
 198.55700	  12.39241	  -0.16344
 198.21000	  12.38880	  -0.15597
 197.86300	  12.38530	  -0.15905
 197.51700	  12.38484	  -0.16046
 197.17400	  12.39007	  -0.16478
 196.82900	  12.38839	  -0.15376
 196.48500	  12.39093	  -0.15366
 196.14200	  12.38651	  -0.15739
 195.79800	  12.38288	  -0.15085
 195.45400	  12.38609	  -0.15800
 195.11000	  12.38622	  -0.16855
 194.76700	  12.38974	  -0.15934
 194.42300	  12.38360	  -0.15444
 194.08100	  12.38313	  -0.16686
 193.73900	  12.38853	  -0.17047
 193.39700	  12.38039	  -0.16892
 193.05500	  12.38268	  -0.15938
 192.71500	  12.38634	  -0.15879
 192.37400	  12.39262	  -0.15411
 192.03400	  12.39048	  -0.15365
 191.69300	  12.38197	  -0.16263
 191.35400	  12.37858	  -0.16349
 191.01500	  12.37666	  -0.16775
 190.67700	  12.38793	  -0.17048
 190.33800	  12.37759	  -0.15692
 190.00000	  12.37999	  -0.14762
 189.66300	  12.38399	  -0.15706
 189.32600	  12.37716	  -0.15648
 188.98900	  12.39275	  -0.14895
 188.65400	  12.38952	  -0.15014
 188.31800	  12.38136	  -0.15446
 187.98400	  12.38019	  -0.14775
 187.65000	  12.37905	  -0.15188
 187.31600	  12.37531	  -0.15507
 186.98400	  12.37593	  -0.16374
 186.65200	  12.38336	  -0.15907
 186.32100	  12.38256	  -0.16753
 185.98900	  12.38357	  -0.15547
 185.65800	  12.38023	  -0.15811
 185.32800	  12.38282	  -0.15581
 184.99800	  12.39038	  -0.15129
 184.66800	  12.37147	  -0.15719
 184.33700	  12.37852	  -0.16128
 184.00500	  12.38388	  -0.15662
 183.67300	  12.38637	  -0.15117
 183.34200	  12.38143	  -0.15887
 183.01100	  12.38058	  -0.15615
 182.68000	  12.38013	  -0.15889
 182.35200	  12.38679	  -0.15931
 182.02300	  12.37211	  -0.16062
 181.69500	  12.37930	  -0.16607
 181.36700	  12.38089	  -0.16520
 181.04000	  12.39151	  -0.15978
 180.71300	  12.37266	  -0.15885
 180.38700	  12.36889	  -0.15616
 180.06200	  12.37443	  -0.16400
 179.73700	  12.38422	  -0.16560
 179.41400	  12.38649	  -0.17033
 179.09000	  12.37725	  -0.15975
 178.76600	  12.38771	  -0.16318
 178.44300	  12.38809	  -0.15576
 178.12100	  12.37691	  -0.15582
 177.80000	  12.38679	  -0.16238
 177.48000	  12.38116	  -0.15441
 177.16000	  12.37680	  -0.15490
 176.84000	  12.37608	  -0.15565
 176.51000	  12.38033	  -0.15574
 176.17400	  12.37342	  -0.15889
 175.83900	  12.37401	  -0.15627
 175.50700	  12.38013	  -0.16712
 175.17700	  12.38291	  -0.15733
 174.85100	  12.37467	  -0.16563
 174.52700	  12.37899	  -0.15841
 174.20700	  12.36913	  -0.16103
 173.88900	  12.37645	  -0.16207
 173.57200	  12.38059	  -0.16396
 173.25700	  12.37731	  -0.16360
 172.94300	  12.37081	  -0.15432
 172.63100	  12.36618	  -0.15931
 172.31900	  12.37876	  -0.16260
 172.00900	  12.37139	  -0.16744
 171.69800	  12.36224	  -0.17042
 171.38600	  12.38231	  -0.16090
 171.07400	  12.37819	  -0.17116
 170.76100	  12.36669	  -0.16726
 170.44800	  12.37144	  -0.16414
 170.13800	  12.36391	  -0.16618
 169.82800	  12.37064	  -0.16598
 169.51800	  12.36709	  -0.16145
 169.20900	  12.36329	  -0.15939
 168.90000	  12.37066	  -0.16879
 168.59200	  12.36646	  -0.16476
 168.28500	  12.37821	  -0.16214
 167.97800	  12.37207	  -0.15463
 167.67300	  12.36775	  -0.16104
 167.36800	  12.37725	  -0.16403
 167.06300	  12.38434	  -0.16215
 166.76000	  12.36616	  -0.16164
 166.45600	  12.36690	  -0.16550
 166.15300	  12.36955	  -0.17505
 165.85100	  12.37026	  -0.16454
 165.54900	  12.37541	  -0.16476
 165.24800	  12.37811	  -0.16913
 164.94800	  12.38003	  -0.15947
 164.64800	  12.37899	  -0.16397
 164.34900	  12.37859	  -0.16189
 164.05100	  12.37065	  -0.16096
 163.75300	  12.37589	  -0.16329
 163.45600	  12.38329	  -0.15830
 163.15900	  12.37644	  -0.16144
 162.86300	  12.37625	  -0.16831
 162.56700	  12.36365	  -0.17304
 162.27300	  12.36539	  -0.17156
 161.97900	  12.37314	  -0.16585
 161.68600	  12.37749	  -0.16183
 161.39300	  12.37796	  -0.16348
 161.10100	  12.36950	  -0.15551
 160.80900	  12.36703	  -0.16092
 160.51800	  12.36897	  -0.17115
 160.22700	  12.37389	  -0.17026
 159.93800	  12.38157	  -0.16798
 159.64800	  12.37205	  -0.16393
 159.35600	  12.36978	  -0.16526
 159.06400	  12.36060	  -0.15785
 158.77200	  12.36195	  -0.17099
 158.48100	  12.36754	  -0.17334
 158.19100	  12.36267	  -0.16809
 157.90100	  12.36393	  -0.14847
 157.61200	  12.37501	  -0.16194
 157.32300	  12.36400	  -0.15383
 157.03600	  12.38020	  -0.15839
 156.74800	  12.37687	  -0.16974
 156.46000	  12.36411	  -0.16271
 156.17300	  12.35833	  -0.15858
 155.88700	  12.35226	  -0.16852
 155.60300	  12.36166	  -0.16721
 155.31800	  12.36868	  -0.17133
 155.03400	  12.36335	  -0.17409
 154.75000	  12.36643	  -0.16967
 154.46700	  12.36386	  -0.16459
 154.18500	  12.36167	  -0.16161
 153.90300	  12.37917	  -0.15627
 153.62100	  12.37313	  -0.16380
 153.34000	  12.36768	  -0.15766
 153.06000	  12.36127	  -0.16821
 152.78000	  12.36458	  -0.17031
 152.50200	  12.37112	  -0.17187
 152.22300	  12.36343	  -0.16557
 151.94400	  12.37533	  -0.15205
 151.66700	  12.37336	  -0.16346
 151.39000	  12.37274	  -0.16361
 151.11400	  12.36937	  -0.15747
 150.83800	  12.38274	  -0.17071
 150.56300	  12.37617	  -0.16668
 150.28800	  12.36910	  -0.16536
 150.01500	  12.37656	  -0.16681
 149.74200	  12.35861	  -0.16861
 149.46900	  12.37078	  -0.16830
 149.19700	  12.36726	  -0.16445
 148.92300	  12.35996	  -0.16402
 148.65100	  12.37017	  -0.15807
 148.37900	  12.36243	  -0.16597
 148.10700	  12.37467	  -0.16472
 147.83500	  12.36975	  -0.16289
 147.56100	  12.36711	  -0.17202
 147.28800	  12.36809	  -0.16864
 147.01600	  12.37165	  -0.16056
 146.74500	  12.36767	  -0.16297
 146.47400	  12.37209	  -0.15495
 146.20400	  12.37077	  -0.17042
 145.93400	  12.37360	  -0.17130
 145.66500	  12.36969	  -0.16561
 145.39500	  12.35981	  -0.16893
 145.12700	  12.37255	  -0.16868
 144.86000	  12.36358	  -0.17095
 144.59400	  12.36249	  -0.16922
 144.32800	  12.36511	  -0.16735
 144.06400	  12.36769	  -0.17047
 143.80000	  12.37265	  -0.17937
 143.53600	  12.36337	  -0.17435
 143.27300	  12.36511	  -0.16724
 143.01100	  12.36629	  -0.17834
 142.74800	  12.36304	  -0.17363
 142.48600	  12.34729	  -0.17024
 142.22500	  12.37265	  -0.18233
 141.96500	  12.36028	  -0.18124
 141.70600	  12.36234	  -0.16227
 141.44800	  12.36584	  -0.16769
 141.19000	  12.36401	  -0.17133
 140.93300	  12.37254	  -0.16300
 140.67600	  12.36776	  -0.15705
 140.42000	  12.36414	  -0.16710
 140.16400	  12.36200	  -0.16663
 139.90900	  12.36275	  -0.16486
 139.65500	  12.36246	  -0.16049
 139.40000	  12.36395	  -0.16359
 139.14700	  12.36840	  -0.17123
 138.89500	  12.36071	  -0.17647
 138.64300	  12.37466	  -0.17485
 138.39100	  12.37019	  -0.16698
 138.14100	  12.36597	  -0.17698
 137.89100	  12.35988	  -0.17256
 137.64200	  12.35503	  -0.16968
 137.39100	  12.35828	  -0.17031
 137.13800	  12.36312	  -0.17623
 136.88700	  12.36027	  -0.17178
 136.63500	  12.35794	  -0.16968
 136.38500	  12.35709	  -0.17588
 136.13500	  12.36149	  -0.17631
 135.88700	  12.36008	  -0.17072
 135.64400	  12.36168	  -0.15476
 135.40000	  12.35573	  -0.16797
 135.15500	  12.36009	  -0.17270
 134.90800	  12.35876	  -0.17293
 134.66200	  12.36307	  -0.17318
 134.41600	  12.35538	  -0.17309
 134.17000	  12.36084	  -0.17831
 133.92400	  12.35992	  -0.17322
 133.67900	  12.35651	  -0.16140
 133.43400	  12.35575	  -0.16837
 133.19000	  12.35821	  -0.16847
 132.94600	  12.35926	  -0.17140
 132.70300	  12.36293	  -0.16539
 132.46200	  12.36252	  -0.17350
 132.22100	  12.35594	  -0.16464
 131.98100	  12.36354	  -0.16639
 131.74000	  12.36607	  -0.17725
 131.49900	  12.35456	  -0.18998
 131.26000	  12.35097	  -0.18640
 131.02100	  12.35118	  -0.16885
 130.78300	  12.36001	  -0.16892
 130.54500	  12.36122	  -0.17414
 130.30700	  12.35198	  -0.17586
 130.07000	  12.36187	  -0.17456
 129.83500	  12.36244	  -0.16736
 129.59900	  12.36403	  -0.16726
 129.36400	  12.35466	  -0.17008
 129.12900	  12.35254	  -0.16616
 128.89500	  12.34854	  -0.17078
 128.66100	  12.35275	  -0.16855
 128.42900	  12.36946	  -0.17832
 128.19600	  12.35631	  -0.17717
 127.96500	  12.35256	  -0.17020
 127.73300	  12.35413	  -0.17400
 127.50200	  12.35647	  -0.17420
 127.27000	  12.36079	  -0.17010
 127.03800	  12.34616	  -0.17008
 126.80400	  12.35107	  -0.18204
 126.57100	  12.35734	  -0.17841
 126.33800	  12.35419	  -0.18560
 126.10600	  12.34853	  -0.17795
 125.87400	  12.35942	  -0.17805
 125.64200	  12.35875	  -0.18369
 125.41300	  12.35729	  -0.18516
 125.18400	  12.36440	  -0.18227
 124.95400	  12.35906	  -0.17676
 124.72500	  12.35916	  -0.17935
 124.49600	  12.35406	  -0.17988
 124.26700	  12.36005	  -0.18253
 124.04100	  12.35747	  -0.18914
 123.81500	  12.35827	  -0.18216
 123.58900	  12.34980	  -0.18786
 123.36300	  12.35105	  -0.18113
 123.13700	  12.36054	  -0.16872
 122.91200	  12.35878	  -0.16624
 122.68800	  12.35998	  -0.17171
 122.46400	  12.35928	  -0.17076
 122.24000	  12.36902	  -0.17888
 122.01700	  12.36252	  -0.17447
 121.79500	  12.35875	  -0.18308
 121.57300	  12.35142	  -0.16990
 121.35200	  12.36540	  -0.17089
 121.13000	  12.36151	  -0.17571
 120.90900	  12.36001	  -0.17544
 120.68900	  12.36202	  -0.17359
 120.47000	  12.35701	  -0.17902
 120.25100	  12.35310	  -0.18165
 120.03300	  12.35669	  -0.18865
 119.81400	  12.35755	  -0.16714
 119.59600	  12.35224	  -0.17808
 119.37800	  12.35268	  -0.18070
 119.16100	  12.36545	  -0.16737
 118.94700	  12.35895	  -0.17440
 118.73300	  12.35137	  -0.16686
 118.51900	  12.35927	  -0.17566
 118.30400	  12.36046	  -0.18378
 118.09000	  12.35304	  -0.17292
 117.87300	  12.35971	  -0.17989
 117.65600	  12.35780	  -0.18465
 117.43900	  12.35655	  -0.19024
 117.22200	  12.34868	  -0.19076
 117.00600	  12.35180	  -0.18093
 116.79100	  12.35572	  -0.18023
 116.57600	  12.36080	  -0.18315
 116.36200	  12.35313	  -0.17680
 116.14700	  12.35183	  -0.18258
 115.93300	  12.35657	  -0.18697
 115.72100	  12.36757	  -0.18893
 115.51000	  12.34908	  -0.17642
 115.30000	  12.35154	  -0.18328
 115.08800	  12.34575	  -0.18591
 114.87800	  12.35188	  -0.17113
 114.66800	  12.35577	  -0.17295
 114.45700	  12.35242	  -0.18388
 114.24700	  12.35507	  -0.18127
 114.03800	  12.36238	  -0.18851
 113.83000	  12.35962	  -0.17220
 113.62300	  12.35094	  -0.17626
 113.41600	  12.34994	  -0.18697
 113.21000	  12.34662	  -0.19231
 113.00400	  12.35308	  -0.18354
 112.79600	  12.35060	  -0.18307
 112.59100	  12.35780	  -0.19299
 112.38600	  12.34986	  -0.18703
 112.18200	  12.34277	  -0.17543
 111.97900	  12.34956	  -0.17935
 111.77700	  12.34893	  -0.17239
 111.57600	  12.35502	  -0.17440
 111.37500	  12.35202	  -0.17977
 111.17400	  12.34484	  -0.17441
 110.97500	  12.35136	  -0.17864
 110.77300	  12.35115	  -0.16998
 110.57200	  12.35321	  -0.17219
 110.37100	  12.35319	  -0.18147
 110.17000	  12.36089	  -0.18517
 109.97000	  12.35152	  -0.18288
 109.76900	  12.34766	  -0.18038
 109.57000	  12.35154	  -0.18327
 109.37200	  12.35057	  -0.17964
 109.17300	  12.33986	  -0.18612
 108.97400	  12.34605	  -0.17756
 108.77200	  12.35278	  -0.18279
 108.57100	  12.34878	  -0.17704
 108.37100	  12.35399	  -0.17550
 108.17000	  12.35525	  -0.18432
 107.97000	  12.36039	  -0.18459
 107.77100	  12.34808	  -0.18215
 107.57300	  12.34216	  -0.18279
 107.37600	  12.34773	  -0.18001
 107.17800	  12.35304	  -0.17651
 106.98000	  12.35850	  -0.17643
 106.78200	  12.35000	  -0.18333
 106.58500	  12.34976	  -0.17496
 106.38700	  12.34962	  -0.18134
 106.19000	  12.34309	  -0.18854
 105.99300	  12.33859	  -0.17885
 105.79800	  12.34156	  -0.18343
 105.60300	  12.34952	  -0.18617
 105.40800	  12.35610	  -0.18912
 105.21400	  12.35426	  -0.18190
 105.02100	  12.35626	  -0.19313
 104.82800	  12.34485	  -0.18865
 104.63600	  12.34375	  -0.18799
 104.44400	  12.35155	  -0.18310
 104.25100	  12.33917	  -0.18001
 104.05900	  12.34418	  -0.18456
 103.86600	  12.34508	  -0.17710
 103.67400	  12.33371	  -0.18447
 103.48300	  12.33857	  -0.17661
 103.29200	  12.34958	  -0.18100
 103.10200	  12.34781	  -0.17646
 102.91200	  12.35225	  -0.16989
 102.72300	  12.33877	  -0.18830
 102.53300	  12.34967	  -0.17862
 102.34300	  12.35258	  -0.17802
 102.15300	  12.34551	  -0.18180
 101.96600	  12.34747	  -0.18616
 101.78000	  12.34509	  -0.18415
 101.59300	  12.35103	  -0.18951
 101.40600	  12.35100	  -0.19074
 101.21900	  12.33708	  -0.18586
 101.03200	  12.34662	  -0.19516
 100.84600	  12.33626	  -0.18233
 100.66000	  12.33696	  -0.18985
 100.47200	  12.33959	  -0.17695
 100.28200	  12.34342	  -0.18089
 100.09200	  12.33679	  -0.19576
  99.90300	  12.33788	  -0.18394
  99.71300	  12.33986	  -0.18903
  99.52600	  12.34133	  -0.18727
  99.34000	  12.34621	  -0.17846
  99.15500	  12.33949	  -0.18127
  98.96700	  12.33019	  -0.18363
  98.78100	  12.34541	  -0.16854
  98.59700	  12.34353	  -0.17375
  98.41100	  12.33492	  -0.18774
  98.22400	  12.34398	  -0.19045
  98.03800	  12.34873	  -0.19458
  97.85200	  12.33996	  -0.18848
  97.66900	  12.35254	  -0.17814
  97.48600	  12.34993	  -0.18049
  97.30200	  12.34779	  -0.19414
  97.11800	  12.33401	  -0.18936
  96.93300	  12.33241	  -0.18871
  96.74900	  12.34350	  -0.18204
  96.56400	  12.34948	  -0.18476
  96.38000	  12.34384	  -0.18620
  96.19800	  12.33975	  -0.19996
  96.01900	  12.34527	  -0.18685
  95.84000	  12.34159	  -0.19291
  95.66100	  12.33889	  -0.18341
  95.48200	  12.34224	  -0.17829
  95.30100	  12.34330	  -0.19324
  95.12100	  12.33455	  -0.18221
  94.94400	  12.33825	  -0.17854
  94.76500	  12.34258	  -0.18900
  94.58700	  12.34158	  -0.19630
  94.40700	  12.33930	  -0.19010
  94.23000	  12.33533	  -0.18988
  94.05500	  12.35545	  -0.18723
  93.87700	  12.34217	  -0.19259
  93.70000	  12.34127	  -0.18665
  93.52200	  12.34426	  -0.18616
  93.34200	  12.35026	  -0.19099
  93.16300	  12.35067	  -0.18879
  92.98500	  12.34490	  -0.17590
  92.80700	  12.34306	  -0.18420
  92.62800	  12.34006	  -0.19461
  92.45000	  12.34055	  -0.19780
  92.27100	  12.34399	  -0.20726
  92.09300	  12.33887	  -0.19156
  91.91600	  12.34547	  -0.17789
  91.74100	  12.34177	  -0.19785
  91.56500	  12.34450	  -0.19427
  91.39000	  12.33606	  -0.18848
  91.21600	  12.33994	  -0.19729
  91.04400	  12.33570	  -0.19258
  90.87100	  12.32456	  -0.19283
  90.69700	  12.33231	  -0.18683
  90.52200	  12.34018	  -0.19013
  90.34700	  12.33837	  -0.20849
  90.17200	  12.33083	  -0.19070
  89.99800	  12.33272	  -0.18388
  89.82700	  12.33701	  -0.18684
  89.65700	  12.33144	  -0.18953
  89.48600	  12.33489	  -0.18786
  89.31600	  12.33821	  -0.18234
  89.14700	  12.34479	  -0.19158
  88.97900	  12.33537	  -0.18742
  88.81000	  12.33527	  -0.19804
  88.63900	  12.33807	  -0.19387
  88.46900	  12.33640	  -0.19650
  88.29900	  12.34488	  -0.19874
  88.12800	  12.34438	  -0.19711
  87.95600	  12.34631	  -0.19080
  87.78600	  12.32998	  -0.19343
  87.62100	  12.33894	  -0.20137
  87.45600	  12.33101	  -0.19585
  87.28800	  12.32636	  -0.18573
  87.12300	  12.34164	  -0.19018
  86.95800	  12.34166	  -0.19180
  86.78900	  12.33660	  -0.20530
  86.62200	  12.33916	  -0.19187
  86.45500	  12.34562	  -0.19527
  86.28700	  12.33667	  -0.19208
  86.12000	  12.32874	  -0.21134
  85.95500	  12.33435	  -0.20980
  85.78900	  12.33619	  -0.20632
  85.62500	  12.34336	  -0.19884
  85.45800	  12.34286	  -0.18704
  85.29500	  12.33505	  -0.18818
  85.13300	  12.33011	  -0.18808
  84.96800	  12.33631	  -0.19279
  84.80500	  12.34313	  -0.18548
  84.64100	  12.33560	  -0.18447
  84.47700	  12.34420	  -0.17969
  84.31200	  12.33259	  -0.18388
  84.15100	  12.32833	  -0.19033
  83.99200	  12.33329	  -0.19806
  83.83000	  12.33382	  -0.19977
  83.67200	  12.33059	  -0.18844
  83.51100	  12.32367	  -0.19162
  83.34900	  12.33292	  -0.19617
  83.19200	  12.32896	  -0.19452
  83.03200	  12.32481	  -0.18927
  82.87300	  12.33034	  -0.18509
  82.71300	  12.33309	  -0.19031
  82.55500	  12.32655	  -0.18940
  82.40000	  12.33302	  -0.18984
  82.24300	  12.32272	  -0.19852
  82.08800	  12.32452	  -0.19961
  81.93300	  12.33159	  -0.19623
  81.77700	  12.32923	  -0.18923
  81.62200	  12.33175	  -0.18352
  81.46500	  12.34541	  -0.18474
  81.30900	  12.32695	  -0.19039
  81.15400	  12.32832	  -0.19189
  81.00000	  12.34091	  -0.19443
  80.84400	  12.33765	  -0.20936
  80.68700	  12.33696	  -0.19548
  80.53100	  12.33616	  -0.18740
  80.37600	  12.32579	  -0.18115
  80.22100	  12.31801	  -0.19400
  80.06600	  12.32592	  -0.20290
  79.91100	  12.33612	  -0.19943
  79.75600	  12.34827	  -0.18939
  79.60100	  12.34307	  -0.18619
  79.44800	  12.33054	  -0.17171
  79.29300	  12.32581	  -0.18434
  79.14100	  12.33169	  -0.18707
  78.98800	  12.31685	  -0.20094
  78.83600	  12.32089	  -0.18339
  78.68200	  12.31819	  -0.18371
  78.53100	  12.27742	  -0.16166
  78.37900	  12.20752	  -0.12588
  78.22600	  12.06968	  -0.04162
  78.06700	  11.65368	   0.14551
  77.88600	  11.13379	   0.29614
  77.73500	  10.49228	   0.39961
  77.58600	   9.72174	   0.47894
  77.43000	   9.01482	   0.51669
  77.28300	   8.32404	   0.51080
  77.13400	   7.64899	   0.50146
  76.98400	   6.99400	   0.47982
  76.83500	   6.39971	   0.44231
  76.68800	   5.86085	   0.40126
  76.53900	   5.39795	   0.33689
  76.39200	   4.99473	   0.28801
  76.24600	   4.67449	   0.21746
  76.10100	   4.40884	   0.16339
  75.95500	   4.21212	   0.10278
  75.81100	   4.06086	   0.06164
  75.65800	   3.95588	   0.02583
  75.51400	   3.86326	   0.00039
  75.36900	   3.81030	  -0.02120
  75.22400	   3.77064	  -0.04620
  75.08000	   3.73574	  -0.04806
  74.93200	   3.70824	  -0.04967
  74.78600	   3.67194	  -0.04316
  74.64000	   3.66809	  -0.05246
  74.49500	   3.64794	  -0.05226
  74.34700	   3.62322	  -0.04613
  74.20200	   3.59905	  -0.05128
  74.05400	   3.57819	  -0.04939
  73.90700	   3.56566	  -0.04961
  73.76000	   3.55818	  -0.04491
  73.61500	   3.54392	  -0.05214
  73.47000	   3.52427	  -0.05104
  73.32500	   3.52470	  -0.05123
  73.18100	   3.51734	  -0.04163
  73.03700	   3.49743	  -0.03884
  72.89300	   3.49497	  -0.05231
  72.75100	   3.48849	  -0.05039
  72.60700	   3.47596	  -0.04059
  72.46500	   3.46030	  -0.04613
  72.32400	   3.45462	  -0.05728
  72.18300	   3.44885	  -0.04995
  72.04000	   3.44498	  -0.05025
  71.89900	   3.42370	  -0.05165
  71.75900	   3.43394	  -0.05355
  71.61800	   3.41575	  -0.04678
  71.47900	   3.41537	  -0.05694
  71.33900	   3.40446	  -0.04919
  71.20100	   3.39923	  -0.05898
  71.06200	   3.39704	  -0.04904
  70.92400	   3.39200	  -0.04550
  70.78500	   3.39333	  -0.04606
  70.64800	   3.38092	  -0.05573
  70.51000	   3.38871	  -0.05232
  70.37300	   3.37597	  -0.04999
  70.23600	   3.37196	  -0.03724
  70.09900	   3.35832	  -0.03814
  69.96200	   3.35383	  -0.04620
  69.82600	   3.35867	  -0.04673
  69.69100	   3.34083	  -0.05146
  69.55400	   3.34605	  -0.04885
  69.41900	   3.35790	  -0.05645
  69.28400	   3.34703	  -0.05082
  69.14900	   3.34771	  -0.04963
  69.01500	   3.34110	  -0.04481
  68.88100	   3.33089	  -0.04837
  68.74400	   3.32518	  -0.05175
  68.60900	   3.32432	  -0.04651
  68.47400	   3.33401	  -0.04466
  68.34000	   3.33550	  -0.04346
  68.20500	   3.32425	  -0.03557
  68.07100	   3.31670	  -0.03704
  67.93800	   3.31932	  -0.05018
  67.80400	   3.30215	  -0.04895
  67.67100	   3.29542	  -0.04145
  67.53800	   3.30369	  -0.04535
  67.40600	   3.30052	  -0.04906
  67.27400	   3.29666	  -0.05921
  67.14200	   3.30142	  -0.04878
  67.01100	   3.29143	  -0.04725
  66.88000	   3.28988	  -0.05085
  66.75000	   3.29494	  -0.05437
  66.61900	   3.29724	  -0.05245
  66.48900	   3.29325	  -0.05399
  66.36000	   3.28761	  -0.04105
  66.23000	   3.28694	  -0.03612
  66.10100	   3.28821	  -0.05745
  65.97100	   3.28101	  -0.05718
  65.84200	   3.27441	  -0.04818
  65.71400	   3.27472	  -0.04734
  65.58600	   3.25725	  -0.04817
  65.45900	   3.27137	  -0.04309
  65.33300	   3.27302	  -0.04660
  65.20700	   3.27829	  -0.04190
  65.08000	   3.27166	  -0.05155
  64.95500	   3.26331	  -0.04956
  64.83000	   3.27189	  -0.04654
  64.70400	   3.26466	  -0.04086
  64.58000	   3.25629	  -0.05133
  64.45600	   3.25717	  -0.05120
  64.33200	   3.25887	  -0.05163
  64.20800	   3.25751	  -0.04154
  64.08500	   3.25068	  -0.04574
  63.96100	   3.24780	  -0.05384
  63.83800	   3.25828	  -0.05378
  63.71600	   3.24849	  -0.04737
  63.59500	   3.24735	  -0.05473
  63.47300	   3.25139	  -0.05300
  63.35200	   3.26421	  -0.05001
  63.23200	   3.25127	  -0.03802
  63.11000	   3.24539	  -0.04284
  62.98800	   3.24467	  -0.04513
  62.86600	   3.24410	  -0.04503
  62.74300	   3.24094	  -0.04590
  62.62200	   3.24656	  -0.05846
  62.50000	   3.23717	  -0.05107
  62.37900	   3.22798	  -0.05412
  62.25900	   3.24562	  -0.04866
  62.13800	   3.23997	  -0.05126
  62.01700	   3.23670	  -0.04158
  61.89700	   3.23601	  -0.03971
  61.77800	   3.23691	  -0.03993
  61.65800	   3.24112	  -0.04507
  61.53900	   3.23734	  -0.05497
  61.42000	   3.24897	  -0.05456
  61.30200	   3.23825	  -0.05255
  61.18300	   3.22619	  -0.05680
  61.06600	   3.22381	  -0.05445
  60.94900	   3.22592	  -0.04554
  60.83100	   3.22915	  -0.05164
  60.71300	   3.23100	  -0.04189
  60.59800	   3.23570	  -0.04581
  60.48200	   3.22793	  -0.04992
  60.36600	   3.22036	  -0.04865
  60.25000	   3.21853	  -0.04630
  60.13500	   3.21934	  -0.04955
  60.02000	   3.22429	  -0.04799
  59.90600	   3.22314	  -0.05562
  59.79200	   3.22351	  -0.05161
  59.67800	   3.21734	  -0.05448
  59.56400	   3.22750	  -0.04874
  59.45100	   3.22780	  -0.05163
  59.33800	   3.22062	  -0.05292
  59.22500	   3.21347	  -0.05260
  59.11300	   3.21503	  -0.04657
  59.00100	   3.22016	  -0.05312
  58.89000	   3.22290	  -0.05434
  58.78000	   3.22155	  -0.04632
  58.67000	   3.21687	  -0.05800
  58.55900	   3.22032	  -0.04935
  58.44900	   3.21881	  -0.05142
  58.33900	   3.21544	  -0.05518
  58.22800	   3.21057	  -0.05001
  58.11900	   3.20448	  -0.05424
  58.01000	   3.21108	  -0.05397
  57.90000	   3.20809	  -0.05026
  57.79100	   3.19926	  -0.04100
  57.68300	   3.20768	  -0.04822
  57.57500	   3.21492	  -0.05261
  57.46600	   3.20875	  -0.05892
  57.35700	   3.20094	  -0.04781
  57.24800	   3.20796	  -0.05498
  57.14000	   3.21596	  -0.05247
  57.03200	   3.20892	  -0.04896
  56.92400	   3.20791	  -0.05033
  56.81800	   3.20909	  -0.04788
  56.71100	   3.21137	  -0.05833
  56.60400	   3.20202	  -0.04735
  56.49800	   3.19384	  -0.05300
  56.39300	   3.20158	  -0.04931
  56.28500	   3.19554	  -0.05209
  56.17700	   3.20041	  -0.04759
  56.07100	   3.20345	  -0.05011
  55.96500	   3.20355	  -0.04511
  55.85900	   3.19354	  -0.05194
  55.75300	   3.20161	  -0.05136
  55.64800	   3.19857	  -0.04441
  55.54300	   3.19392	  -0.04877
  55.44000	   3.19336	  -0.04965
  55.33500	   3.20040	  -0.05038
  55.23200	   3.20816	  -0.05117
  55.12700	   3.20261	  -0.05301
  55.02400	   3.20173	  -0.06172
  54.92300	   3.20759	  -0.05230
  54.82100	   3.19841	  -0.04283
  54.71900	   3.19360	  -0.04718
  54.61800	   3.19539	  -0.04989
  54.51500	   3.19390	  -0.04669
  54.41100	   3.20098	  -0.05707
  54.30900	   3.19741	  -0.04994
  54.20700	   3.20325	  -0.04880
  54.10600	   3.19586	  -0.04943
  54.00500	   3.19456	  -0.05283
  53.90300	   3.18687	  -0.05134
  53.80400	   3.18393	  -0.05778
  53.70400	   3.18596	  -0.05505
  53.60600	   3.19422	  -0.05073
  53.50700	   3.18268	  -0.04630
  53.40900	   3.18903	  -0.04866
  53.31100	   3.19158	  -0.06806
  53.21200	   3.18507	  -0.04857
  53.11500	   3.18475	  -0.06063
  53.01800	   3.18951	  -0.04849
  52.92200	   3.18482	  -0.04766
  52.82500	   3.18253	  -0.05453
  52.72800	   3.19053	  -0.04417
  52.63000	   3.19044	  -0.05040
  52.53500	   3.18913	  -0.04416
  52.44100	   3.18617	  -0.04834
  52.34600	   3.19315	  -0.05292
  52.25200	   3.18127	  -0.04579
  52.15800	   3.18285	  -0.05238
  52.06500	   3.19436	  -0.05568
  51.97200	   3.19272	  -0.04810
  51.87700	   3.18888	  -0.05741
  51.78400	   3.18576	  -0.05530
  51.69200	   3.19059	  -0.05716
  51.60100	   3.19053	  -0.04877
  51.52200	   3.19145	  -0.05349
  51.43300	   3.18799	  -0.05237
  51.34200	   3.18158	  -0.04696
  51.25000	   3.18087	  -0.04750
  51.15800	   3.18711	  -0.05421
  51.06600	   3.18768	  -0.05509
  50.97300	   3.17874	  -0.04975
  50.88200	   3.18457	  -0.05713
  50.78800	   3.18444	  -0.05086
  50.69800	   3.17667	  -0.05812
  50.60500	   3.18156	  -0.04481
  50.51200	   3.17899	  -0.05359
  50.41900	   3.17577	  -0.06024
  50.32600	   3.16824	  -0.05632
  50.23300	   3.17289	  -0.05025
  50.14100	   3.17676	  -0.05565
  50.04700	   3.18091	  -0.06420
  49.95300	   3.18620	  -0.05348
  49.85900	   3.18454	  -0.04331
  49.76400	   3.17825	  -0.05482
  49.67000	   3.18471	  -0.05497
  49.57400	   3.18257	  -0.05084
  49.46100	   3.18282	  -0.04368
  49.35900	   3.17050	  -0.05322
  49.26000	   3.18135	  -0.04639
  49.16200	   3.18862	  -0.04793
  49.06300	   3.17770	  -0.05408
  48.96400	   3.17152	  -0.05738
  48.86300	   3.17762	  -0.06139
  48.76200	   3.17569	  -0.05831
  48.66000	   3.17508	  -0.05820
  48.55800	   3.17659	  -0.05709
  48.45800	   3.17609	  -0.05580
  48.35600	   3.17399	  -0.05286
  48.25600	   3.17301	  -0.06631
  48.15600	   3.17587	  -0.06155
  48.05600	   3.17276	  -0.04561
  47.95400	   3.17474	  -0.04811
  47.85000	   3.18075	  -0.05584
  47.74700	   3.17351	  -0.06451
  47.64500	   3.17101	  -0.04614
  47.54500	   3.17001	  -0.05394
  47.44400	   3.17101	  -0.04518
  47.34300	   3.17537	  -0.05373
  47.24300	   3.17596	  -0.05632
  47.14200	   3.17219	  -0.05746
  47.04200	   3.16599	  -0.05769
  46.94200	   3.17093	  -0.05004
  46.84200	   3.16878	  -0.05632
  46.74200	   3.17244	  -0.06570
  46.64300	   3.16975	  -0.06454
  46.54400	   3.17234	  -0.05614
  46.44300	   3.16711	  -0.04838
  46.34400	   3.16774	  -0.04440
  46.24700	   3.17344	  -0.04617
  46.14900	   3.16669	  -0.05214
  46.05000	   3.17175	  -0.05666
  45.95200	   3.16863	  -0.05531
  45.85400	   3.17118	  -0.04519
  45.75900	   3.16358	  -0.05486
  45.66100	   3.17497	  -0.05281
  45.56600	   3.17153	  -0.05444
  45.46900	   3.16832	  -0.05450
  45.37300	   3.17022	  -0.06768
  45.27600	   3.17173	  -0.05083
  45.17700	   3.16759	  -0.06010
  45.08200	   3.16450	  -0.06175
  44.98400	   3.16396	  -0.05584
  44.89000	   3.16058	  -0.05559
  44.79400	   3.16804	  -0.06755
  44.69700	   3.16226	  -0.06202
  44.60400	   3.15835	  -0.04823
  44.50700	   3.16162	  -0.05243
  44.41200	   3.15665	  -0.05770
  44.31700	   3.15954	  -0.05385
  44.22200	   3.15216	  -0.04694
  44.12700	   3.17470	  -0.05599
  44.03400	   3.16991	  -0.05374
  43.94100	   3.16141	  -0.04780
  43.84700	   3.16424	  -0.05300
  43.75300	   3.16105	  -0.05930
  43.66000	   3.16773	  -0.05810
  43.56700	   3.16152	  -0.06285
  43.47800	   3.16853	  -0.05519
  43.40300	   3.16279	  -0.06631
  43.31500	   3.16312	  -0.05905
  43.22500	   3.16451	  -0.05754
  43.13400	   3.16117	  -0.05563
  43.04100	   3.16134	  -0.05524
  42.95000	   3.16094	  -0.06109
  42.85700	   3.16407	  -0.05848
  42.76100	   3.17641	  -0.05588
  42.64600	   3.17038	  -0.05871
  42.54500	   3.17073	  -0.05619
  42.45100	   3.16242	  -0.05347
  42.35300	   3.16102	  -0.06900
  42.26200	   3.16368	  -0.05679
  42.16900	   3.17226	  -0.05143
  42.07700	   3.17541	  -0.05812
  41.98200	   3.16573	  -0.05337
  41.88600	   3.15678	  -0.04946
  41.78800	   3.15959	  -0.06084
  41.68900	   3.16122	  -0.06391
  41.59000	   3.14978	  -0.05705
  41.49200	   3.16501	  -0.05531
  41.39400	   3.16575	  -0.05376
  41.29700	   3.16839	  -0.05706
  41.20000	   3.15796	  -0.06446
  41.10200	   3.15907	  -0.05165
  41.00400	   3.15526	  -0.04455
  40.91000	   3.17039	  -0.05112
  40.81600	   3.15778	  -0.05502
  40.72100	   3.15740	  -0.04519
  40.62700	   3.15578	  -0.05031
  40.53400	   3.16894	  -0.05266
  40.44100	   3.15996	  -0.05213
  40.34700	   3.14952	  -0.04877
  40.25100	   3.15424	  -0.05055
  40.15600	   3.15941	  -0.05363
  40.05900	   3.15074	  -0.05160
  39.95500	   3.16064	  -0.06059
  39.85400	   3.15226	  -0.04973
  39.75700	   3.15544	  -0.05478
  39.66400	   3.15959	  -0.06011
  39.56900	   3.16232	  -0.05645
  39.47400	   3.15035	  -0.05643
  39.37900	   3.15877	  -0.05702
  39.28500	   3.15491	  -0.05147
  39.19300	   3.15759	  -0.06011
  39.09900	   3.15817	  -0.06341
  39.00100	   3.16152	  -0.06399
  38.90300	   3.15259	  -0.06269
  38.81000	   3.15026	  -0.05086
  38.72000	   3.15615	  -0.05547
  38.63000	   3.15723	  -0.05464
  38.54100	   3.15051	  -0.06377
  38.45500	   3.15181	  -0.05629
  38.37200	   3.15790	  -0.05104
  38.28500	   3.15397	  -0.05097
  38.19300	   3.15870	  -0.05528
  38.10200	   3.15437	  -0.05741
  38.01100	   3.15764	  -0.05356
  37.92200	   3.14637	  -0.04710
  37.83800	   3.15719	  -0.05137
  37.75800	   3.14734	  -0.05379
  37.67600	   3.15804	  -0.05485
  37.59400	   3.15279	  -0.06261
  37.50800	   3.16328	  -0.05745
  37.42100	   3.15018	  -0.05156
  37.33600	   3.15035	  -0.05965
  37.25400	   3.14802	  -0.04578
  37.16700	   3.15549	  -0.05276
  37.07600	   3.16011	  -0.05470
  36.99200	   3.15092	  -0.06373
  36.91400	   3.15205	  -0.05004
  36.83200	   3.14650	  -0.06064
  36.74700	   3.15389	  -0.06060
  36.66100	   3.15269	  -0.05996
  36.57500	   3.14601	  -0.05226
  36.49200	   3.15584	  -0.05758
  36.41200	   3.15756	  -0.05949
  36.33800	   3.15139	  -0.06040
  36.26200	   3.15499	  -0.05703
  36.18300	   3.14946	  -0.05418
  36.10000	   3.15939	  -0.06210
  36.01900	   3.15668	  -0.06495
  35.94000	   3.15903	  -0.05282
  35.86300	   3.15633	  -0.05210
  35.78700	   3.15487	  -0.05372
  35.71400	   3.14471	  -0.05426
  35.64400	   3.14926	  -0.05595
  35.57200	   3.14400	  -0.06277
  35.49800	   3.15316	  -0.05679
  35.42900	   3.14166	  -0.05184
  35.36500	   3.14928	  -0.05967
  35.30200	   3.14766	  -0.05872
  35.23200	   3.15636	  -0.05168
  35.15600	   3.15680	  -0.06240
  35.08000	   3.15876	  -0.05933
  35.01100	   3.16343	  -0.05867
  34.94400	   3.15656	  -0.05946
  34.87800	   3.15193	  -0.06295
  34.80900	   3.15628	  -0.05526
  34.74300	   3.14948	  -0.04349
  34.67700	   3.14385	  -0.05406
  34.61600	   3.15437	  -0.05082
  34.55400	   3.14308	  -0.04681
  34.49700	   3.14052	  -0.05343
  34.43400	   3.14529	  -0.04890
  34.37000	   3.15976	  -0.05011
  34.30900	   3.15288	  -0.05720
  34.25500	   3.14631	  -0.06037
  34.20600	   3.14695	  -0.05660
  34.16200	   3.15706	  -0.05663
  34.11900	   3.15335	  -0.04837
  34.08000	   3.14815	  -0.06175
  34.04300	   3.14649	  -0.05125
  34.00800	   3.15030	  -0.05130
  33.97200	   3.15265	  -0.05499
  33.93600	   3.15657	  -0.05987
  33.90700	   3.15553	  -0.06117
  33.88200	   3.13954	  -0.04796
  33.86100	   3.14758	  -0.04999
  33.84300	   3.13615	  -0.04840
  33.82700	   3.14950	  -0.05779
  33.81200	   3.15237	  -0.05742
  33.79800	   3.15181	  -0.05205
  33.78900	   3.15017	  -0.04773
  33.78400	   3.14983	  -0.04971
  33.77500	   3.14687	  -0.05658
  33.77000	   3.14580	  -0.05528
  33.77300	   3.14532	  -0.04974
  33.78000	   3.14044	  -0.05216
  33.78500	   3.15759	  -0.05162
  33.79300	   3.15451	  -0.04910
  33.80300	   3.13606	  -0.05067
  33.81900	   3.14543	  -0.06353
  33.84100	   3.15737	  -0.05525
  33.85700	   3.14858	  -0.06074
  33.87400	   3.15272	  -0.05350
  33.89700	   3.14021	  -0.05360
  33.92200	   3.14860	  -0.05935
  33.94400	   3.15144	  -0.05894
  33.96800	   3.14929	  -0.05435
  33.99700	   3.15399	  -0.05265
  34.02700	   3.15761	  -0.05517
  34.05800	   3.14651	  -0.05301
  34.09100	   3.14670	  -0.05359
  34.12600	   3.14373	  -0.04922
  34.16700	   3.14447	  -0.06674
  34.21000	   3.14530	  -0.06122
  34.25200	   3.14649	  -0.05335
  34.29200	   3.14763	  -0.05125
  34.32900	   3.15216	  -0.05411
  34.37500	   3.16020	  -0.06232
  34.43000	   3.15220	  -0.06150
  34.48100	   3.14834	  -0.06063
  34.53200	   3.14521	  -0.05325
  34.58500	   3.14889	  -0.05067
  34.64100	   3.15212	  -0.05098
  34.69900	   3.15038	  -0.05494
  34.75900	   3.14668	  -0.05183
  34.82100	   3.14487	  -0.06209
  34.88100	   3.14798	  -0.05552
  34.94300	   3.13338	  -0.05706
  35.00300	   3.14870	  -0.05778
  35.06200	   3.15511	  -0.05715
  35.12400	   3.14562	  -0.04974
  35.18500	   3.14348	  -0.04399
  35.24800	   3.15399	  -0.04404
  35.31400	   3.14858	  -0.06105
  35.38200	   3.14668	  -0.06233
  35.45200	   3.14156	  -0.06183
  35.52300	   3.14796	  -0.06334
  35.59500	   3.15387	  -0.05350
  35.66600	   3.15446	  -0.04894
  35.74100	   3.15219	  -0.05683
  35.81700	   3.14595	  -0.05159
  35.89200	   3.14816	  -0.05477
  35.96900	   3.14265	  -0.04744
  36.04800	   3.15223	  -0.05068
  36.12600	   3.15349	  -0.05160
  36.20700	   3.14889	  -0.05074
  36.28700	   3.15119	  -0.05505
  36.37000	   3.16310	  -0.05484
  36.45300	   3.15093	  -0.04601
  36.53700	   3.14497	  -0.05017
  36.62200	   3.14210	  -0.04882
  36.70800	   3.14917	  -0.05485
  36.79500	   3.15495	  -0.05385
  36.88100	   3.15071	  -0.05609
  36.96900	   3.14776	  -0.04843
  37.05600	   3.15697	  -0.05195
  37.14500	   3.14665	  -0.05068
  37.22900	   3.14318	  -0.05329
  37.31500	   3.15566	  -0.05170
  37.41000	   3.15303	  -0.05427
  37.50100	   3.14911	  -0.05771
  37.59000	   3.15176	  -0.05920
  37.68000	   3.15264	  -0.06066
  37.77000	   3.15285	  -0.05437
  37.86000	   3.14772	  -0.05759
  37.95200	   3.15913	  -0.05354
  38.04200	   3.14147	  -0.06110
  38.13400	   3.15965	  -0.05529
  38.22600	   3.15198	  -0.05024
  38.31900	   3.15857	  -0.04797
  38.41000	   3.15724	  -0.04765
  38.50200	   3.14932	  -0.05415
  38.59500	   3.15404	  -0.05605
  38.68800	   3.16020	  -0.05760
  38.78300	   3.15201	  -0.04974
  38.87800	   3.15112	  -0.05086
  38.97500	   3.14194	  -0.06650
  39.06300	   3.13995	  -0.05640
  39.15600	   3.15771	  -0.05634
  39.25500	   3.14857	  -0.06007
  39.36000	   3.14993	  -0.05694
  39.45800	   3.15260	  -0.05905
  39.55500	   3.15747	  -0.06151
  39.65100	   3.16146	  -0.04608
  39.74800	   3.14640	  -0.05327
  39.84400	   3.15201	  -0.05385
  39.92100	   3.14681	  -0.05648
  40.02200	   3.14895	  -0.04978
  40.12200	   3.15127	  -0.05535
  40.21700	   3.15702	  -0.04891
  40.31400	   3.16104	  -0.04850
  40.41000	   3.15723	  -0.03771
  40.50700	   3.16428	  -0.05125
  40.60300	   3.14742	  -0.05040
  40.70000	   3.15872	  -0.05149
  40.79800	   3.15367	  -0.04926
  40.89300	   3.15887	  -0.05211
  40.98900	   3.16008	  -0.05104
  41.08600	   3.15984	  -0.05227
  41.17200	   3.15724	  -0.04720
  41.27600	   3.15905	  -0.05398
  41.36300	   3.15705	  -0.05131
  41.46700	   3.15498	  -0.05288
  41.55500	   3.15492	  -0.05406
  41.65800	   3.15327	  -0.06089
  41.74600	   3.16250	  -0.05080
  41.84900	   3.16254	  -0.04930
  41.93600	   3.16784	  -0.04869
  42.03700	   3.16347	  -0.05612
  42.13400	   3.15253	  -0.05577
  42.22700	   3.15374	  -0.05488
  42.32800	   3.15774	  -0.04569
  42.40900	   3.15684	  -0.04984
  42.50900	   3.15788	  -0.06373
  42.60200	   3.16487	  -0.05101
  42.69500	   3.15594	  -0.04944
  42.78600	   3.15731	  -0.04871
  42.88000	   3.16120	  -0.05270
  42.97200	   3.15368	  -0.05218
  43.06500	   3.16486	  -0.04619
  43.15600	   3.15780	  -0.05493
  43.24900	   3.14999	  -0.05927
  43.34000	   3.15391	  -0.06203
  43.43300	   3.16335	  -0.05750
  43.52400	   3.16334	  -0.05936
  43.61500	   3.14772	  -0.05451
  43.70700	   3.16556	  -0.04540
  43.79800	   3.16496	  -0.05134
  43.89000	   3.15475	  -0.05746
  43.98000	   3.15675	  -0.05320
  44.08000	   3.15823	  -0.04706
  44.16700	   3.15734	  -0.04774
  44.25700	   3.16025	  -0.05825
  44.35700	   3.15940	  -0.05189
  44.44200	   3.15888	  -0.04985
  44.53000	   3.16470	  -0.05313
  44.62200	   3.16753	  -0.04824
  44.71400	   3.17101	  -0.04279
  44.80500	   3.16098	  -0.04549
  44.89600	   3.16098	  -0.04537
  44.98800	   3.16322	  -0.05563
  45.08100	   3.16052	  -0.05283
  45.17300	   3.16734	  -0.05002
  45.26500	   3.16552	  -0.05459
  45.36600	   3.16122	  -0.05306
  45.46000	   3.16763	  -0.04898
  45.54500	   3.17271	  -0.06250
  45.63900	   3.15817	  -0.06146
  45.73100	   3.15875	  -0.04591
  45.82600	   3.15964	  -0.04996
  45.91700	   3.16754	  -0.05287
  46.00600	   3.16566	  -0.05067
  46.10100	   3.15688	  -0.05873
  46.19100	   3.16584	  -0.04986
  46.29000	   3.16457	  -0.05320
  46.37700	   3.17579	  -0.05521
  46.47800	   3.16813	  -0.05234
  46.57300	   3.16869	  -0.05217
  46.66800	   3.15916	  -0.04501
  46.76100	   3.17535	  -0.04887
  46.85300	   3.17272	  -0.05723
  46.94800	   3.16874	  -0.06247
  47.04100	   3.16613	  -0.06589
  47.13400	   3.16244	  -0.05358
  47.22700	   3.16385	  -0.04145
  47.32100	   3.16882	  -0.05903
  47.41500	   3.16827	  -0.05884
  47.50800	   3.16281	  -0.04705
  47.60200	   3.17505	  -0.04596
  47.69500	   3.16880	  -0.05073
  47.79000	   3.17359	  -0.05442
  47.88400	   3.16885	  -0.05842
  47.97700	   3.17419	  -0.05434
  48.07100	   3.17251	  -0.05789
  48.16600	   3.17112	  -0.03957
  48.26100	   3.16643	  -0.04381
  48.35400	   3.17309	  -0.05213
  48.44800	   3.17938	  -0.05344
  48.54300	   3.17054	  -0.05751
  48.63700	   3.16177	  -0.04704
  48.73100	   3.15756	  -0.05587
  48.82500	   3.16979	  -0.05300
  48.92000	   3.16932	  -0.04934
  49.01400	   3.16769	  -0.04417
  49.10700	   3.16758	  -0.04172
  49.20000	   3.16298	  -0.06149
  49.29300	   3.16686	  -0.04931
  49.38700	   3.17371	  -0.05074
  49.48100	   3.16654	  -0.04302
  49.57300	   3.17263	  -0.04349
  49.66700	   3.18172	  -0.04862
  49.76000	   3.16977	  -0.05883
  49.85300	   3.17392	  -0.05822
  49.94600	   3.17687	  -0.06364
  50.03900	   3.17169	  -0.05049
  50.13300	   3.17774	  -0.05675
  50.22800	   3.16742	  -0.04940
  50.32100	   3.17866	  -0.04617
  50.41400	   3.18174	  -0.04451
  50.50700	   3.17806	  -0.05178
  50.60100	   3.17227	  -0.05537
  50.69400	   3.17329	  -0.05043
  50.78700	   3.18192	  -0.05058
  50.88100	   3.17739	  -0.05603
  50.97500	   3.17129	  -0.05111
  51.07000	   3.17588	  -0.04771
  51.16300	   3.16952	  -0.05205
  51.25800	   3.17456	  -0.05578
  51.35200	   3.18642	  -0.05197
  51.44600	   3.17671	  -0.05050
  51.54100	   3.17656	  -0.05774
  51.63500	   3.17798	  -0.04781
  51.73000	   3.17874	  -0.04514
  51.82400	   3.17718	  -0.04986
  51.92000	   3.17793	  -0.04884
  52.01200	   3.18499	  -0.05006
  52.10900	   3.19304	  -0.05059
  52.20400	   3.18094	  -0.05484
  52.29900	   3.18256	  -0.04698
  52.38500	   3.18074	  -0.04054
  52.48600	   3.18492	  -0.04401
  52.58500	   3.18423	  -0.04456
  52.68000	   3.17856	  -0.04855
  52.77500	   3.17508	  -0.04970
  52.86900	   3.17677	  -0.04865
  52.96600	   3.17835	  -0.04818
  53.06100	   3.17670	  -0.04849
  53.15600	   3.18274	  -0.04812
  53.25500	   3.17633	  -0.05032
  53.35100	   3.17939	  -0.04901
  53.44500	   3.18390	  -0.05406
  53.54000	   3.18028	  -0.04988
  53.63600	   3.17904	  -0.04996
  53.73200	   3.17767	  -0.05396
  53.82500	   3.18208	  -0.05078
  53.92100	   3.17846	  -0.04929
  54.01600	   3.18639	  -0.05710
  54.11200	   3.18340	  -0.04952
  54.20700	   3.19139	  -0.04621
  54.30300	   3.17962	  -0.05276
  54.40000	   3.18692	  -0.05263
  54.49500	   3.18095	  -0.04280
  54.59200	   3.19126	  -0.04627
  54.68600	   3.18443	  -0.05277
  54.78100	   3.19106	  -0.04411
  54.87500	   3.19234	  -0.05322
  54.97100	   3.18521	  -0.03871
  55.06700	   3.17218	  -0.05281
  55.16300	   3.17421	  -0.05227
  55.25900	   3.17583	  -0.05012
  55.35400	   3.17007	  -0.05152
  55.45000	   3.18439	  -0.05257
  55.54700	   3.18176	  -0.03502
  55.64400	   3.19081	  -0.04027
  55.74100	   3.19158	  -0.04316
  55.84000	   3.18667	  -0.05316
  55.93900	   3.18529	  -0.05845
  56.02100	   3.19204	  -0.04383
  56.13000	   3.19311	  -0.04791
  56.21700	   3.19887	  -0.04690
  56.32700	   3.20806	  -0.04591
  56.41000	   3.19315	  -0.04616
  56.51800	   3.19538	  -0.04846
  56.59800	   3.18895	  -0.04522
  56.70400	   3.18181	  -0.04806
  56.78200	   3.18600	  -0.04542
  56.89100	   3.18824	  -0.04290
  56.98700	   3.19134	  -0.05642
  57.08200	   3.18540	  -0.05024
  57.17700	   3.17734	  -0.04648
  57.27200	   3.17282	  -0.05771
  57.37000	   3.18217	  -0.05318
  57.44700	   3.19753	  -0.04619
  57.55600	   3.19366	  -0.05023
  57.65600	   3.19470	  -0.04252
  57.73600	   3.18543	  -0.05147
  57.84500	   3.18768	  -0.05498
  57.94500	   3.19280	  -0.05195
  58.02700	   3.18621	  -0.05232
  58.13500	   3.18282	  -0.05396
  58.22000	   3.17014	  -0.04595
  58.32800	   3.17776	  -0.04588
  58.41100	   3.17400	  -0.03970
  58.52100	   3.18289	  -0.04328
  58.60300	   3.18128	  -0.04304
  58.71000	   3.19083	  -0.05208
  58.79700	   3.17514	  -0.06122
  58.90500	   3.18153	  -0.05721
  58.99000	   3.17086	  -0.04805
  59.09900	   3.18043	  -0.04889
  59.18400	   3.17514	  -0.04852
  59.27700	   3.16985	  -0.05188
  59.38700	   3.16925	  -0.05330
  59.46900	   3.17796	  -0.04990
  59.57700	   3.18579	  -0.05968
  59.65900	   3.18252	  -0.05154
  59.76400	   3.18144	  -0.03969
  59.84600	   3.17632	  -0.04662
  59.95200	   3.18639	  -0.04955
  60.03700	   3.17741	  -0.05800
  60.14400	   3.18517	  -0.05397
  60.22800	   3.18504	  -0.05065
  60.33400	   3.17442	  -0.04373
  60.41400	   3.17704	  -0.05685
  60.51600	   3.18529	  -0.04237
  60.61000	   3.18952	  -0.03675
  60.70000	   3.18521	  -0.04519
  60.79100	   3.18285	  -0.04222
  60.87900	   3.19009	  -0.04480
  60.96900	   3.18418	  -0.04217
  61.05900	   3.17976	  -0.04350
  61.14900	   3.18178	  -0.04654
  61.23800	   3.18892	  -0.04902
  61.32400	   3.19240	  -0.03894
  61.40900	   3.19040	  -0.03841
  61.49500	   3.18533	  -0.04394
  61.58200	   3.18561	  -0.04733
  61.66900	   3.19385	  -0.04862
  61.75500	   3.17411	  -0.03705
  61.84000	   3.18338	  -0.03487
  61.92400	   3.19055	  -0.05359
  62.00800	   3.19270	  -0.04288
  62.09300	   3.19444	  -0.03631
  62.17700	   3.19043	  -0.04432
  62.26100	   3.19697	  -0.04069
  62.34600	   3.18599	  -0.03973
  62.43400	   3.19285	  -0.04811
  62.52000	   3.19625	  -0.05418
  62.60700	   3.19450	  -0.04281
  62.69600	   3.20017	  -0.04113
  62.78500	   3.18849	  -0.04554
  62.87500	   3.18750	  -0.05593
  62.96500	   3.18207	  -0.04408
  63.05400	   3.19515	  -0.05156
  63.14200	   3.19595	  -0.04363
  63.23100	   3.20005	  -0.04644
  63.31900	   3.18686	  -0.04303
  63.40700	   3.19819	  -0.04071
  63.49600	   3.20066	  -0.04056
  63.58500	   3.19172	  -0.04325
  63.67200	   3.20210	  -0.04182
  63.76100	   3.20089	  -0.04747
  63.84900	   3.19386	  -0.04450
  63.93800	   3.20045	  -0.04677
  64.02600	   3.20268	  -0.04215
  64.11400	   3.19916	  -0.05440
  64.20200	   3.20277	  -0.04480
  64.29000	   3.20201	  -0.04308
  64.37800	   3.20633	  -0.03535
  64.46600	   3.18851	  -0.03831
  64.55300	   3.19889	  -0.04997
  64.64000	   3.19346	  -0.05047
  64.72900	   3.19973	  -0.04711
  64.81500	   3.19167	  -0.04640
  64.90000	   3.20175	  -0.05125
  64.98700	   3.20217	  -0.05386
  65.07200	   3.20821	  -0.04749
  65.15900	   3.20984	  -0.04498
  65.24300	   3.20868	  -0.04208
  65.32900	   3.21281	  -0.04016
  65.41400	   3.20328	  -0.04545
  65.49900	   3.20856	  -0.04330
  65.58200	   3.21358	  -0.04797
  65.66600	   3.21672	  -0.05275
  65.75200	   3.19767	  -0.04436
  65.83600	   3.20156	  -0.04751
  65.92000	   3.20338	  -0.03950
  66.00300	   3.21449	  -0.04045
  66.08800	   3.20053	  -0.03583
  66.17200	   3.22024	  -0.04384
  66.25600	   3.21775	  -0.03853
  66.33900	   3.21354	  -0.05156
  66.42300	   3.22158	  -0.04464
  66.50700	   3.21978	  -0.04145
  66.59100	   3.22244	  -0.04239
  66.67500	   3.21002	  -0.05008
  66.76000	   3.20858	  -0.04026
  66.84400	   3.20967	  -0.04684
  66.92900	   3.20456	  -0.05108
  67.01300	   3.20548	  -0.05200
  67.09700	   3.20926	  -0.04761
  67.18200	   3.22069	  -0.05040
  67.26700	   3.22256	  -0.04502
  67.35100	   3.21859	  -0.03663
  67.43600	   3.21943	  -0.03766
  67.52200	   3.21908	  -0.04091
  67.60800	   3.22502	  -0.05069
  67.69200	   3.22008	  -0.04808
  67.77700	   3.22818	  -0.04511
  67.86300	   3.21852	  -0.05282
  67.94700	   3.22731	  -0.05752
  68.03300	   3.22359	  -0.03962
  68.11900	   3.22268	  -0.05172
  68.20400	   3.22052	  -0.04991
  68.29100	   3.22432	  -0.04146
  68.37700	   3.22442	  -0.03612
  68.46400	   3.22559	  -0.04685
  68.55100	   3.22745	  -0.04965
  68.63700	   3.23460	  -0.04876
  68.72400	   3.22662	  -0.04373
  68.81000	   3.22449	  -0.04891
  68.89800	   3.23150	  -0.03098
  68.98500	   3.22255	  -0.04045
  69.07200	   3.23017	  -0.04106
  69.15600	   3.23404	  -0.04791
  69.24300	   3.22161	  -0.04691
  69.32900	   3.23309	  -0.04404
  69.41500	   3.22744	  -0.03476
  69.50200	   3.23866	  -0.03997
  69.58900	   3.23196	  -0.03784
  69.67600	   3.23729	  -0.03623
  69.76300	   3.23192	  -0.04707
  69.85100	   3.24329	  -0.04596
  69.93800	   3.23362	  -0.04456
  70.02700	   3.23393	  -0.04908
  70.11500	   3.23539	  -0.04692
  70.20500	   3.22972	  -0.04598
  70.29500	   3.23682	  -0.04905
  70.38500	   3.24328	  -0.05518
  70.47600	   3.23450	  -0.04421
  70.56800	   3.23289	  -0.04898
  70.65800	   3.23319	  -0.05375
  70.74800	   3.24044	  -0.05415
  70.84000	   3.24249	  -0.04252
  70.93100	   3.24079	  -0.04805
  71.02400	   3.24867	  -0.04715
  71.11500	   3.24160	  -0.05008
  71.20800	   3.23985	  -0.03788
  71.30100	   3.23127	  -0.04213
  71.39600	   3.24896	  -0.04171
  71.48900	   3.25022	  -0.04893
  71.58400	   3.25689	  -0.04364
  71.68000	   3.25577	  -0.04245
  71.77500	   3.24187	  -0.04758
  71.87100	   3.25676	  -0.04612
  71.96800	   3.25701	  -0.04540
  72.06600	   3.24691	  -0.04066
  72.16300	   3.24832	  -0.05662
  72.26100	   3.25545	  -0.05185
  72.35900	   3.26431	  -0.04916
  72.45700	   3.25696	  -0.05119
  72.55600	   3.25666	  -0.04748
  72.65500	   3.26957	  -0.03927
  72.73900	   3.27115	  -0.04590
  72.84800	   3.25469	  -0.03777
  72.93500	   3.24896	  -0.05391
  73.04800	   3.23574	  -0.05982
  73.13500	   3.25016	  -0.04336
  73.23300	   3.25389	  -0.04990
  73.33400	   3.25987	  -0.04200
  73.43400	   3.25171	  -0.04807
  73.53400	   3.24838	  -0.03243
  73.63400	   3.25475	  -0.04398
  73.73500	   3.25922	  -0.03734
  73.83600	   3.25589	  -0.04187
  73.93700	   3.25169	  -0.04451
  74.03900	   3.25648	  -0.04622
  74.14000	   3.25737	  -0.04571
  74.24200	   3.26867	  -0.04243
  74.34300	   3.27088	  -0.04673
  74.44500	   3.26590	  -0.04045
  74.54700	   3.27435	  -0.04955
  74.64800	   3.27120	  -0.04278
  74.75000	   3.27287	  -0.04827
  74.85100	   3.26611	  -0.04083
  74.95300	   3.27191	  -0.03996
  75.05300	   3.26757	  -0.04388
  75.15400	   3.27531	  -0.04856
  75.25400	   3.27474	  -0.04930
  75.35400	   3.29100	  -0.03967
  75.45400	   3.28265	  -0.04620
  75.55300	   3.28154	  -0.04148
  75.65300	   3.28355	  -0.05042
  75.75300	   3.28492	  -0.05226
  75.85200	   3.28407	  -0.05180
  75.95200	   3.28710	  -0.04466
  76.05100	   3.29703	  -0.04524
  76.15100	   3.29132	  -0.02682
  76.25000	   3.29390	  -0.04283
  76.35000	   3.29352	  -0.03448
  76.45000	   3.30109	  -0.04613
  76.54900	   3.28936	  -0.04005
  76.64900	   3.30130	  -0.03708
  76.74800	   3.30797	  -0.03787
  76.84700	   3.30938	  -0.04107
  76.94600	   3.31262	  -0.04308
  77.04600	   3.31112	  -0.04905
  77.14500	   3.31116	  -0.04743
  77.24400	   3.32002	  -0.04369
  77.34300	   3.31602	  -0.03983
  77.44200	   3.31561	  -0.04639
  77.54200	   3.32032	  -0.04333
  77.64100	   3.32197	  -0.04817
  77.73900	   3.33264	  -0.04911
  77.83700	   3.33231	  -0.04770
  77.93600	   3.32575	  -0.05089
  78.03500	   3.32395	  -0.04982
  78.13300	   3.33316	  -0.04345
  78.23200	   3.34515	  -0.04894
  78.33000	   3.34547	  -0.03606
  78.42900	   3.34765	  -0.03833
  78.52600	   3.34284	  -0.03835
  78.62500	   3.34617	  -0.04064
  78.72300	   3.35364	  -0.04021
  78.82100	   3.36302	  -0.04065
  78.91900	   3.36568	  -0.04300
  79.01600	   3.36290	  -0.04551
  79.11400	   3.37014	  -0.04525
  79.21100	   3.36524	  -0.04289
  79.30900	   3.37456	  -0.03670
  79.40700	   3.37364	  -0.03488
  79.50400	   3.37685	  -0.03766
  79.60100	   3.39211	  -0.03702
  79.69800	   3.38780	  -0.03945
  79.79400	   3.38422	  -0.03539
  79.89100	   3.39117	  -0.03242
  79.98700	   3.40067	  -0.03825
  80.08500	   3.39775	  -0.04682
  80.18000	   3.40895	  -0.04407
  80.27700	   3.41387	  -0.04990
  80.37300	   3.40723	  -0.04090
  80.46800	   3.40973	  -0.03907
  80.56500	   3.43533	  -0.03687
  80.65900	   3.43994	  -0.04514
  80.75400	   3.44608	  -0.04036
  80.84900	   3.44658	  -0.04841
  80.94500	   3.46485	  -0.03839
  81.03900	   3.46549	  -0.05080
  81.13200	   3.45668	  -0.04999
  81.22500	   3.46175	  -0.04435
  81.31800	   3.47909	  -0.04055
  81.41100	   3.48501	  -0.03491
  81.50400	   3.49020	  -0.04748
  81.59600	   3.49094	  -0.04830
  81.70200	   3.48445	  -0.04228
  81.78300	   3.49543	  -0.05302
  81.88500	   3.50174	  -0.05371
  81.96600	   3.49799	  -0.04836
  82.06700	   3.49901	  -0.03984
  82.16200	   3.52180	  -0.04152
  82.25300	   3.52810	  -0.04331
  82.34400	   3.53618	  -0.03575
  82.43500	   3.54608	  -0.03330
  82.52600	   3.55918	  -0.04831
  82.61600	   3.56615	  -0.04557
  82.70600	   3.56079	  -0.04555
  82.79500	   3.57853	  -0.03647
  82.88600	   3.59904	  -0.05563
  82.97500	   3.60312	  -0.04650
  83.06500	   3.61252	  -0.05351
  83.15400	   3.62185	  -0.04141
  83.24300	   3.63497	  -0.03295
  83.33200	   3.65664	  -0.03642
  83.42100	   3.67896	  -0.03881
  83.51000	   3.69305	  -0.04079
  83.59900	   3.70817	  -0.03954
  83.68700	   3.72363	  -0.03018
  83.77600	   3.74301	  -0.03466
  83.86400	   3.77163	  -0.02816
  83.95100	   3.78350	  -0.01926
  84.04000	   3.82958	  -0.01295
  84.12800	   3.87845	   0.00401
  84.21500	   3.91933	   0.01896
  84.30200	   3.96325	   0.02987
  84.39000	   4.05190	   0.04815
  84.47800	   4.13546	   0.06844
  84.56400	   4.22427	   0.09108
  84.65100	   4.32939	   0.11431
  84.73800	   4.46365	   0.12934
  84.83000	   4.61322	   0.16886
  84.91700	   4.77290	   0.20792
  85.00500	   4.96311	   0.24619
  85.09100	   5.17899	   0.28357
  85.17700	   5.38726	   0.31875
  85.26400	   5.63126	   0.34961
  85.35100	   5.89040	   0.38623
  85.43700	   6.17746	   0.40960
  85.52300	   6.48137	   0.43290
  85.61100	   6.80174	   0.45659
  85.69900	   7.12187	   0.47795
  85.78500	   7.46672	   0.49114
  85.87300	   7.82561	   0.52215
  85.96000	   8.18663	   0.54279
  86.04600	   8.57545	   0.56001
  86.13200	   8.97876	   0.58294
  86.21900	   9.39308	   0.57256
  86.30600	   9.79388	   0.57118
  86.39200	  10.17855	   0.53223
  86.47700	  10.55401	   0.47009
  86.56500	  10.87886	   0.40259
  86.65000	  11.16663	   0.33807
  86.73700	  11.42316	   0.27699
  86.82100	  11.64537	   0.21421
  86.90900	  11.84740	   0.15315
  86.99500	  12.02049	   0.05818
  87.09500	  12.12155	   0.00584
  87.17900	  12.18783	  -0.05614
  87.26400	  12.23583	  -0.10346
  87.34900	  12.26146	  -0.12780
  87.43900	  12.27770	  -0.14689
  87.52800	  12.28636	  -0.15751
  87.61300	  12.29324	  -0.16496
  87.69800	  12.29908	  -0.16896
  87.78400	  12.30751	  -0.17156
  87.86900	  12.30850	  -0.17005
  87.95500	  12.30668	  -0.17306
  88.04000	  12.29866	  -0.17218
  88.12700	  12.31487	  -0.18405
  88.21300	  12.30912	  -0.17678
  88.30000	  12.31500	  -0.17437
  88.38700	  12.31180	  -0.18572
  88.47500	  12.31711	  -0.17720
  88.56100	  12.30653	  -0.18393
  88.64800	  12.31184	  -0.17815
  88.73400	  12.31514	  -0.17800
  88.82100	  12.30970	  -0.18146
  88.90800	  12.32290	  -0.17481
  88.99300	  12.32060	  -0.17616
  89.07900	  12.32050	  -0.17422
  89.16700	  12.32190	  -0.17982
  89.25600	  12.32377	  -0.18167
  89.34400	  12.31917	  -0.19144
  89.43100	  12.31920	  -0.19114
  89.51800	  12.32037	  -0.17563
  89.60700	  12.32329	  -0.17506
  89.69600	  12.31695	  -0.17813
  89.78400	  12.30830	  -0.18164
  89.87200	  12.30720	  -0.18008
  89.96000	  12.31237	  -0.18587
  90.04800	  12.31443	  -0.17050
  90.12500	  12.30900	  -0.18392
  90.21100	  12.31403	  -0.18678
  90.30100	  12.31601	  -0.17623
  90.38800	  12.31526	  -0.17335
  90.47800	  12.30236	  -0.17981
  90.56800	  12.32127	  -0.18394
  90.66900	  12.31973	  -0.18733
  90.74900	  12.32266	  -0.17054
  90.84900	  12.32305	  -0.17020
  90.94200	  12.30499	  -0.17901
  91.03000	  12.30594	  -0.18386
  91.12200	  12.30815	  -0.18783
  91.21200	  12.31980	  -0.18467
  91.30300	  12.31869	  -0.17568
  91.39400	  12.31403	  -0.18190
  91.48600	  12.32268	  -0.17729
  91.57600	  12.31797	  -0.17760
  91.66600	  12.31796	  -0.17869
  91.75400	  12.32428	  -0.18266
  91.84600	  12.32155	  -0.17855
  91.93700	  12.31985	  -0.17425
  92.02900	  12.32259	  -0.18045
  92.12100	  12.31126	  -0.17828
  92.21400	  12.32128	  -0.17670
  92.30600	  12.32481	  -0.17194
  92.39700	  12.34052	  -0.18194
  92.48900	  12.32846	  -0.17221
  92.58100	  12.31891	  -0.17740
  92.67400	  12.31404	  -0.16958
  92.76800	  12.30979	  -0.17475
  92.86100	  12.31973	  -0.17952
  92.95400	  12.32046	  -0.17486
  93.04600	  12.31733	  -0.17703
  93.13900	  12.31759	  -0.17746
  93.23100	  12.30860	  -0.17724
  93.32700	  12.32486	  -0.17491
  93.42100	  12.32392	  -0.17485
  93.51600	  12.31344	  -0.18524
  93.61000	  12.31692	  -0.18060
  93.70300	  12.31478	  -0.17315
  93.79700	  12.31509	  -0.18353
  93.89100	  12.31050	  -0.18704
  93.98500	  12.32306	  -0.17764
  94.08100	  12.31837	  -0.18263
  94.17600	  12.31579	  -0.17929
  94.27200	  12.32377	  -0.16973
  94.36700	  12.31630	  -0.17369
  94.46300	  12.32471	  -0.17387
  94.56100	  12.32453	  -0.16989
  94.65600	  12.31548	  -0.17461
  94.75400	  12.32021	  -0.17004
  94.85100	  12.31047	  -0.16970
  94.94900	  12.32099	  -0.17789
  95.04900	  12.31733	  -0.17394
  95.14700	  12.31478	  -0.17281
  95.24700	  12.32009	  -0.17364
  95.34700	  12.32560	  -0.18082
  95.44600	  12.32006	  -0.16823
  95.54900	  12.32743	  -0.16720
  95.64900	  12.32329	  -0.17607
  95.75200	  12.31616	  -0.18334
  95.85600	  12.32053	  -0.18105
  95.95700	  12.31540	  -0.17892
  96.06000	  12.31501	  -0.17637
  96.16600	  12.31755	  -0.17309
  96.27300	  12.31214	  -0.18202
  96.38100	  12.32691	  -0.17912
  96.48900	  12.31826	  -0.17457
  96.59800	  12.30803	  -0.16997
  96.69300	  12.31385	  -0.17932
  96.80100	  12.31631	  -0.17776
  96.91200	  12.31210	  -0.17438
  97.02300	  12.31784	  -0.17868
  97.13500	  12.31589	  -0.18015
  97.24800	  12.32175	  -0.17820
  97.36200	  12.31536	  -0.16934
  97.47700	  12.31109	  -0.16447
  97.59300	  12.32182	  -0.17979
  97.70900	  12.31311	  -0.17433
  97.82600	  12.31853	  -0.17381
  97.94300	  12.31139	  -0.17127
  98.06200	  12.32463	  -0.17222
  98.18100	  12.32292	  -0.17115
  98.30100	  12.32180	  -0.17550
  98.42200	  12.32203	  -0.16892
  98.54400	  12.31472	  -0.16804
  98.66700	  12.32855	  -0.16441
  98.79000	  12.31907	  -0.16849
  98.91300	  12.32027	  -0.16472
  99.03800	  12.32222	  -0.17292
  99.16300	  12.31781	  -0.18930
  99.29000	  12.31179	  -0.18278
  99.41700	  12.29522	  -0.16804
  99.54400	  12.31573	  -0.17227
  99.67100	  12.31472	  -0.17210
  99.80000	  12.32386	  -0.17354
  99.92900	  12.32121	  -0.18062
 100.05900	  12.31838	  -0.18150
 100.18900	  12.31574	  -0.17306
 100.32000	  12.32547	  -0.16822
 100.45200	  12.32544	  -0.17432
 100.58100	  12.31713	  -0.16852
 100.71200	  12.32635	  -0.16827
 100.84200	  12.31848	  -0.18129
 100.97300	  12.32332	  -0.16546
 101.10400	  12.31718	  -0.17271
 101.23500	  12.32464	  -0.17243
 101.36700	  12.31793	  -0.17217
 101.50000	  12.31426	  -0.17303
 101.63300	  12.31532	  -0.17858
 101.76600	  12.32757	  -0.18146
 101.90000	  12.32768	  -0.17546
 102.03400	  12.32457	  -0.17730
 102.16800	  12.33022	  -0.17700
 102.30300	  12.33246	  -0.17073
 102.43800	  12.32323	  -0.18377
 102.57400	  12.32548	  -0.17437
 102.71000	  12.32302	  -0.17647
 102.84600	  12.32331	  -0.17359
 102.98200	  12.32200	  -0.16945
 103.11900	  12.32730	  -0.17957
 103.25600	  12.33016	  -0.17048
 103.39400	  12.31499	  -0.17810
 103.53100	  12.31183	  -0.16730
 103.66900	  12.32444	  -0.18355
 103.80700	  12.33508	  -0.16770
 103.94500	  12.31292	  -0.17101
 104.08400	  12.32217	  -0.16898
 104.22200	  12.31644	  -0.17057
 104.36100	  12.32948	  -0.17603
 104.50000	  12.33072	  -0.17679
 104.63900	  12.33014	  -0.16343
 104.77900	  12.32480	  -0.16073
 104.91800	  12.32361	  -0.16717
 105.05800	  12.32211	  -0.16106
 105.19800	  12.31451	  -0.16852
 105.33700	  12.32076	  -0.16946
 105.47800	  12.31672	  -0.16895
 105.61800	  12.32733	  -0.17027
 105.75900	  12.32151	  -0.17129
 105.89900	  12.32371	  -0.18423
 106.03900	  12.33276	  -0.15858
 106.18000	  12.31747	  -0.16938
 106.32100	  12.31803	  -0.17578
 106.46200	  12.31327	  -0.16976
 106.60300	  12.31353	  -0.16924
 106.74500	  12.31797	  -0.17505
 106.88600	  12.32084	  -0.17347
 107.02600	  12.31966	  -0.17520
 107.16800	  12.32541	  -0.16722
 107.30800	  12.32637	  -0.17412
 107.44900	  12.32115	  -0.17018
 107.59100	  12.31513	  -0.17074
 107.73200	  12.31075	  -0.16528
 107.87400	  12.32137	  -0.16830
 108.01500	  12.31951	  -0.15863
 108.15600	  12.32010	  -0.16319
 108.29700	  12.32753	  -0.16773
 108.43900	  12.32419	  -0.16970
 108.58000	  12.31949	  -0.16838
 108.72100	  12.32721	  -0.16126
 108.86300	  12.32799	  -0.16987
 109.00400	  12.32315	  -0.17406
 109.14200	  12.31762	  -0.17545
 109.28100	  12.31854	  -0.17635
 109.41900	  12.33113	  -0.16655
 109.55800	  12.32357	  -0.16662
 109.69500	  12.31195	  -0.16059
 109.83400	  12.33144	  -0.16608
 109.97200	  12.32577	  -0.15975
 110.11000	  12.32017	  -0.16669
 110.24800	  12.31576	  -0.16425
 110.38600	  12.31105	  -0.16949
 110.52400	  12.32218	  -0.16765
 110.66200	  12.32342	  -0.15562
 110.80100	  12.31485	  -0.17248
 110.93800	  12.31795	  -0.17304
 111.07600	  12.32063	  -0.17293
 111.21300	  12.31267	  -0.17307
 111.35000	  12.31782	  -0.16616
 111.48800	  12.31977	  -0.16857
 111.62500	  12.33102	  -0.15561
 111.76200	  12.32576	  -0.16985
 111.89900	  12.32859	  -0.16568
 112.03700	  12.31535	  -0.17137
 112.17300	  12.32343	  -0.16282
 112.31000	  12.32281	  -0.16581
 112.44700	  12.31629	  -0.16558
 112.58400	  12.31691	  -0.16792
 112.72000	  12.32051	  -0.16831
 112.85600	  12.32371	  -0.15468
 112.99300	  12.32507	  -0.16151
 113.12800	  12.32206	  -0.15559
 113.26500	  12.33057	  -0.16580
 113.40100	  12.32366	  -0.16938
 113.53700	  12.32490	  -0.16139
 113.67200	  12.33085	  -0.17100
 113.80800	  12.32543	  -0.16954
 113.94400	  12.32767	  -0.16196
 114.08000	  12.31978	  -0.16496
 114.21500	  12.32443	  -0.16848
 114.35000	  12.30852	  -0.16744
 114.48500	  12.32235	  -0.15791
 114.61900	  12.32881	  -0.15626
 114.75400	  12.31980	  -0.16113
 114.88800	  12.31787	  -0.14959
 115.02300	  12.33229	  -0.16220
 115.15700	  12.32408	  -0.16033
 115.29200	  12.31410	  -0.16481
 115.42500	  12.32655	  -0.16825
 115.55900	  12.32180	  -0.16831
 115.69200	  12.32816	  -0.16195
 115.82600	  12.33291	  -0.17356
 115.96000	  12.32370	  -0.16875
 116.09300	  12.32548	  -0.16212
 116.22600	  12.32771	  -0.16755
 116.35800	  12.32871	  -0.16534
 116.49100	  12.32269	  -0.16141
 116.62400	  12.31816	  -0.15888
 116.75600	  12.31557	  -0.16999
 116.88900	  12.31051	  -0.16015
 117.02100	  12.32144	  -0.15480
 117.15300	  12.31855	  -0.15236
 117.28400	  12.32131	  -0.16042
 117.41600	  12.32496	  -0.16453
 117.54800	  12.32457	  -0.16901
 117.67900	  12.33333	  -0.15773
 117.81000	  12.31664	  -0.17399
 117.94100	  12.31617	  -0.16765
 118.07000	  12.32077	  -0.17230
 118.19800	  12.31660	  -0.16515
 118.32600	  12.31303	  -0.15616
 118.45400	  12.32195	  -0.16269
 118.58200	  12.32192	  -0.15817
 118.70800	  12.32613	  -0.16471
 118.83600	  12.32747	  -0.15446
 118.96300	  12.33334	  -0.14928
 119.09000	  12.33038	  -0.15659
 119.21700	  12.32094	  -0.16295
 119.34300	  12.31814	  -0.16786
 119.46900	  12.32136	  -0.17036
 119.59500	  12.31599	  -0.16062
 119.72200	  12.31704	  -0.16069
 119.84700	  12.31912	  -0.16520
 119.97300	  12.31975	  -0.16798
 120.09900	  12.32175	  -0.16207
 120.22400	  12.32968	  -0.16478
 120.34900	  12.32516	  -0.15551
 120.47400	  12.32505	  -0.15832
 120.59900	  12.33078	  -0.15120
 120.72300	  12.33025	  -0.15431
 120.84800	  12.32807	  -0.15462
 120.97200	  12.32923	  -0.16555
 121.09600	  12.32727	  -0.17008
 121.22000	  12.32605	  -0.16421
 121.34400	  12.32062	  -0.16853
 121.46700	  12.32196	  -0.15177
 121.59000	  12.31394	  -0.15848
 121.71400	  12.31861	  -0.15670
 121.83800	  12.32436	  -0.16082
 121.96000	  12.32665	  -0.16006
 122.08200	  12.31986	  -0.16712
 122.20500	  12.31313	  -0.16806
 122.32800	  12.32489	  -0.16928
 122.44900	  12.33507	  -0.16718
 122.57100	  12.32852	  -0.16640
 122.69300	  12.31509	  -0.16054
 122.81500	  12.31615	  -0.16325
 122.93600	  12.32948	  -0.14270
 123.05700	  12.33473	  -0.15630
 123.17800	  12.33220	  -0.16249
 123.29900	  12.31847	  -0.16520
 123.42000	  12.31282	  -0.16443
 123.54000	  12.32537	  -0.17130
 123.66100	  12.32333	  -0.17216
 123.78100	  12.31311	  -0.16475
 123.90100	  12.33295	  -0.16330
 124.02000	  12.32394	  -0.16712
 124.14000	  12.31058	  -0.16867
 124.25900	  12.31122	  -0.17236
 124.37800	  12.33412	  -0.14807
 124.49800	  12.32800	  -0.12675
 124.61600	  12.31380	  -0.15963
 124.73400	  12.32829	  -0.16301
 124.85300	  12.33352	  -0.16049
 124.97200	  12.33176	  -0.16934
 125.08900	  12.31700	  -0.16489
 125.20700	  12.33311	  -0.16877
 125.32500	  12.33428	  -0.16195
 125.44200	  12.32036	  -0.15845
 125.56000	  12.31585	  -0.16268
 125.67700	  12.30519	  -0.16541
 125.79400	  12.32144	  -0.16377
 125.91100	  12.33931	  -0.16021
 126.02700	  12.33217	  -0.14402
 126.14400	  12.31869	  -0.16768
 126.26000	  12.32721	  -0.16250
 126.37600	  12.32742	  -0.15687
 126.49300	  12.32327	  -0.16393
 126.60800	  12.32712	  -0.17181
 126.72400	  12.33074	  -0.15471
 126.83900	  12.31769	  -0.16002
 126.95400	  12.32108	  -0.15968
 127.06800	  12.32647	  -0.15362
 127.18400	  12.32710	  -0.15636
 127.29800	  12.31970	  -0.15348
 127.41300	  12.32730	  -0.15104
 127.52600	  12.32866	  -0.16650
 127.63800	  12.32447	  -0.16073
 127.75000	  12.31793	  -0.15978
 127.86100	  12.32522	  -0.15936
 127.97300	  12.32486	  -0.16192
 128.08400	  12.32978	  -0.15855
 128.19500	  12.32095	  -0.16156
 128.30600	  12.32084	  -0.15228
 128.41700	  12.32039	  -0.16687
 128.52700	  12.32915	  -0.16326
 128.63800	  12.33791	  -0.15525
 128.74800	  12.32432	  -0.14908
 128.85800	  12.32270	  -0.15544
 128.96700	  12.31844	  -0.16086
 129.07700	  12.32145	  -0.16663
 129.18700	  12.32490	  -0.15405
 129.29600	  12.32787	  -0.15663
 129.40500	  12.32566	  -0.15209
 129.51400	  12.31870	  -0.15868
 129.62200	  12.31083	  -0.15699
 129.73100	  12.32207	  -0.15510
 129.84000	  12.32835	  -0.15411
 129.94700	  12.31854	  -0.16177
 130.05600	  12.32139	  -0.15384
 130.16400	  12.32722	  -0.15083
 130.27100	  12.31898	  -0.15879
 130.37900	  12.31924	  -0.15794
 130.48600	  12.31887	  -0.17292
 130.59300	  12.32245	  -0.16832
 130.70000	  12.32831	  -0.15943
 130.80700	  12.33352	  -0.15400
 130.91400	  12.32945	  -0.15687
 131.02000	  12.33202	  -0.15349
 131.12600	  12.33409	  -0.16717
 131.23200	  12.32755	  -0.16636
 131.33900	  12.33074	  -0.15265
 131.44400	  12.32601	  -0.15496
 131.55000	  12.31866	  -0.16441
 131.65500	  12.32964	  -0.16456
 131.76000	  12.32100	  -0.15558
 131.86500	  12.32683	  -0.15610
 131.97000	  12.31555	  -0.16422
 132.07600	  12.32801	  -0.14421
 132.18000	  12.32237	  -0.15773
 132.28400	  12.32255	  -0.15974
 132.38800	  12.31707	  -0.15485
 132.49300	  12.31996	  -0.15122
 132.59600	  12.32027	  -0.16158
 132.70000	  12.31724	  -0.15166
 132.80300	  12.32350	  -0.15133
 132.90700	  12.31893	  -0.15525
 133.01100	  12.31625	  -0.15928
 133.11300	  12.31193	  -0.15773
 133.21600	  12.31796	  -0.15338
 133.31900	  12.32552	  -0.14997
 133.42200	  12.32572	  -0.15798
 133.52400	  12.31799	  -0.16295
 133.62700	  12.33260	  -0.15824
 133.72900	  12.31946	  -0.15665
 133.83000	  12.32162	  -0.15496
 133.93200	  12.32371	  -0.14665
 134.03400	  12.32178	  -0.15895
 134.13600	  12.32621	  -0.16615
 134.23700	  12.31972	  -0.16782
 134.33800	  12.32361	  -0.16897
 134.43900	  12.32446	  -0.15149
 134.54000	  12.32138	  -0.16624
 134.64100	  12.30884	  -0.15079
 134.74100	  12.31766	  -0.15408
 134.84100	  12.31980	  -0.15497
 134.94200	  12.32702	  -0.15329
 135.04200	  12.32424	  -0.16101
 135.14200	  12.32667	  -0.16253
 135.24100	  12.32274	  -0.14929
 135.34100	  12.31805	  -0.15239
 135.44100	  12.31988	  -0.15669
 135.53900	  12.33258	  -0.16541
 135.63900	  12.32968	  -0.17122
 135.73800	  12.33312	  -0.16339
 135.83600	  12.33411	  -0.15628
 135.93400	  12.32600	  -0.15591
 136.03300	  12.32301	  -0.15084
 136.13200	  12.32165	  -0.15074
 136.23000	  12.32722	  -0.16080
 136.32800	  12.32075	  -0.16011
 136.42600	  12.32610	  -0.17030
 136.52300	  12.32849	  -0.15004
 136.62100	  12.32109	  -0.15321
 136.71800	  12.32178	  -0.16089
 136.81600	  12.32106	  -0.16506
 136.91300	  12.32926	  -0.15562
 137.01000	  12.31497	  -0.15678
 137.10700	  12.31937	  -0.16367
 137.20300	  12.31557	  -0.17055
 137.30000	  12.33282	  -0.16217
 137.39600	  12.32549	  -0.17873
 137.49200	  12.32397	  -0.16523
 137.58600	  12.31996	  -0.14726
 137.68100	  12.32662	  -0.15372
 137.77500	  12.32164	  -0.15588
 137.86900	  12.31828	  -0.15198
 137.96300	  12.32393	  -0.16097
 138.05600	  12.32355	  -0.15788
 138.14900	  12.32165	  -0.14755
 138.24300	  12.32473	  -0.15082
 138.33600	  12.32481	  -0.16364
 138.43000	  12.32110	  -0.14790
 138.52200	  12.32239	  -0.14807
 138.62500	  12.32063	  -0.15628
 138.71000	  12.32463	  -0.15060
 138.81100	  12.32058	  -0.15722
 138.89500	  12.32432	  -0.15842
 138.99400	  12.31967	  -0.15852
 139.08800	  12.32049	  -0.15438
 139.18100	  12.32268	  -0.15713
 139.27200	  12.33675	  -0.15259
 139.36500	  12.32803	  -0.15978
 139.45600	  12.32514	  -0.15857
 139.54800	  12.33605	  -0.16110
 139.63900	  12.32807	  -0.15903
 139.73000	  12.33686	  -0.15540
 139.82100	  12.32840	  -0.14418
 139.91300	  12.33122	  -0.14536
 140.00300	  12.32463	  -0.14993
 140.09300	  12.32391	  -0.15199
 140.18300	  12.31372	  -0.15705
 140.27400	  12.31990	  -0.16552
 140.36200	  12.33150	  -0.14259
 140.45300	  12.32229	  -0.15307
 140.54400	  12.32008	  -0.15133
 140.63400	  12.31841	  -0.14955
 140.72400	  12.32665	  -0.15669
 140.81300	  12.32975	  -0.16807
 140.90300	  12.32557	  -0.16302
 140.99200	  12.31826	  -0.15029
 141.08300	  12.31913	  -0.14728
 141.17300	  12.32546	  -0.14712
 141.26200	  12.32541	  -0.13936
 141.35100	  12.32639	  -0.15796
 141.44000	  12.32153	  -0.15115
 141.52900	  12.33514	  -0.15019
 141.61900	  12.32266	  -0.15693
 141.70800	  12.31672	  -0.15263
 141.79700	  12.31910	  -0.16042
 141.88600	  12.33097	  -0.14863
 141.97500	  12.33594	  -0.15063
 142.06500	  12.33689	  -0.15854
 142.15400	  12.33004	  -0.15513
 142.24200	  12.33028	  -0.15706
 142.33100	  12.32701	  -0.15578
 142.42000	  12.32636	  -0.15623
 142.51000	  12.32383	  -0.15742
 142.59900	  12.32635	  -0.15582
 142.68900	  12.32905	  -0.15146
 142.77900	  12.32268	  -0.14958
 142.86800	  12.32095	  -0.16210
 142.95800	  12.32089	  -0.15903
 143.04900	  12.32002	  -0.16197
 143.14000	  12.32581	  -0.15354
 143.23000	  12.32432	  -0.15091
 143.32100	  12.31442	  -0.15669
 143.41300	  12.32594	  -0.15911
 143.50600	  12.31765	  -0.15746
 143.59800	  12.31494	  -0.15227
 143.69000	  12.31461	  -0.15640
 143.78300	  12.32289	  -0.15164
 143.87600	  12.32136	  -0.14631
 143.96900	  12.32002	  -0.15325
 144.06300	  12.32867	  -0.15705
 144.15700	  12.32915	  -0.15034
 144.25200	  12.31779	  -0.15593
 144.34700	  12.32182	  -0.15102
 144.44400	  12.32870	  -0.14791
 144.54100	  12.32295	  -0.16269
 144.63900	  12.32790	  -0.14961
 144.73700	  12.32642	  -0.15895
 144.83500	  12.32707	  -0.15247
 144.93500	  12.32522	  -0.14784
 145.03400	  12.32221	  -0.14682
 145.13500	  12.32366	  -0.14388
 145.23500	  12.32641	  -0.15003
 145.33700	  12.32541	  -0.15566
 145.43900	  12.31477	  -0.14502
 145.54200	  12.31414	  -0.14751
 145.64700	  12.31808	  -0.15600
 145.75200	  12.32488	  -0.15234
 145.85800	  12.32751	  -0.15372
 145.96300	  12.30861	  -0.14538
 146.07300	  12.31349	  -0.13553
 146.18100	  12.31915	  -0.14620
 146.29100	  12.33212	  -0.15002
 146.40100	  12.32284	  -0.14945
 146.50300	  12.31994	  -0.15625
 146.61300	  12.32246	  -0.15427
 146.72600	  12.31216	  -0.14653
 146.84000	  12.31967	  -0.14965
 146.95400	  12.32249	  -0.15415
 147.07000	  12.32403	  -0.14715
 147.18600	  12.32396	  -0.15115
 147.30400	  12.32264	  -0.14624
 147.42300	  12.32163	  -0.15195
 147.54200	  12.33179	  -0.15749
 147.66300	  12.33019	  -0.15017
 147.78400	  12.32571	  -0.15235
 147.90600	  12.32127	  -0.14395
 148.02800	  12.32082	  -0.15625
 148.15000	  12.31457	  -0.14859
 148.27400	  12.33226	  -0.14409
 148.39800	  12.32358	  -0.15290
 148.52200	  12.32859	  -0.15512
 148.64800	  12.32475	  -0.15806
 148.77400	  12.32071	  -0.15390
 148.90200	  12.31269	  -0.14801
 149.03000	  12.33981	  -0.14490
 149.15900	  12.32120	  -0.14211
 149.28900	  12.33002	  -0.14795
 149.42000	  12.31870	  -0.14858
 149.55100	  12.31998	  -0.14815
 149.68300	  12.32336	  -0.15296
 149.81700	  12.32884	  -0.14913
 149.95000	  12.33510	  -0.14454
 150.08500	  12.33501	  -0.14578
 150.22000	  12.32007	  -0.14339
 150.35700	  12.31852	  -0.14839
 150.49300	  12.32631	  -0.14982
 150.63000	  12.32612	  -0.14773
 150.76800	  12.31891	  -0.14244
 150.90700	  12.32496	  -0.14605
 151.04700	  12.32131	  -0.14629
 151.18600	  12.32548	  -0.15401
 151.32700	  12.31590	  -0.15121
 151.46900	  12.31973	  -0.14313
 151.61100	  12.32233	  -0.13850
 151.75300	  12.31571	  -0.14499
 151.89600	  12.32884	  -0.14028
 152.04000	  12.32697	  -0.14995
 152.18500	  12.32940	  -0.14682
 152.32900	  12.32293	  -0.14441
 152.47500	  12.32279	  -0.14147
 152.62000	  12.32731	  -0.14942
 152.76700	  12.31846	  -0.15044
 152.91400	  12.31441	  -0.15032
 153.06100	  12.31539	  -0.15020
 153.20900	  12.32358	  -0.14807
 153.35800	  12.31413	  -0.14563
 153.50700	  12.32246	  -0.14825
 153.65600	  12.32733	  -0.14315
 153.80500	  12.32116	  -0.14727
 153.95600	  12.32388	  -0.14020
 154.10600	  12.32919	  -0.13664
 154.25700	  12.32069	  -0.14660
 154.40800	  12.32155	  -0.14898
 154.56000	  12.32975	  -0.14920
 154.71200	  12.32340	  -0.15157
 154.86500	  12.32648	  -0.14150
 155.01700	  12.32144	  -0.13396
 155.17000	  12.32429	  -0.14766
 155.32400	  12.31950	  -0.14425
 155.47700	  12.31679	  -0.14374
 155.63200	  12.32404	  -0.15459
 155.78600	  12.32758	  -0.14859
 155.94100	  12.31982	  -0.15265
 156.09600	  12.32712	  -0.14964
 156.25100	  12.33253	  -0.14744
 156.40700	  12.32386	  -0.14452
 156.56300	  12.31740	  -0.15122
 156.71900	  12.32049	  -0.15488
 156.87500	  12.32230	  -0.16323
 157.03200	  12.32116	  -0.15597
 157.18900	  12.32746	  -0.14524
 157.34600	  12.32642	  -0.15305
 157.50300	  12.32436	  -0.15374
 157.66100	  12.32685	  -0.14390
 157.81800	  12.32185	  -0.14822
 157.97700	  12.32910	  -0.14283
 158.13500	  12.32118	  -0.14798
 158.29300	  12.31520	  -0.15324
 158.45200	  12.32643	  -0.15538
 158.61000	  12.32939	  -0.14069
 158.76900	  12.33186	  -0.13805
 158.92800	  12.32462	  -0.15493
 159.08700	  12.32135	  -0.13834
 159.24600	  12.31530	  -0.14674
 159.40600	  12.31842	  -0.13935
 159.56400	  12.31127	  -0.14610
 159.72200	  12.31837	  -0.15087
 159.87900	  12.31827	  -0.14038
 160.03700	  12.32237	  -0.14121
 160.19400	  12.31509	  -0.14481
 160.35200	  12.32171	  -0.14425
 160.51000	  12.31803	  -0.14911
 160.66800	  12.32392	  -0.14361
 160.82600	  12.32616	  -0.14472
 160.98400	  12.32217	  -0.14891
 161.14200	  12.31831	  -0.15125
 161.30000	  12.32510	  -0.14951
 161.45900	  12.31833	  -0.14209
 161.61700	  12.31817	  -0.14814
 161.77600	  12.32300	  -0.14661
 161.93400	  12.32484	  -0.13981
 162.09300	  12.32743	  -0.14769
 162.25200	  12.33456	  -0.14402
 162.41000	  12.32592	  -0.13955
 162.56900	  12.31958	  -0.14435
 162.72700	  12.31582	  -0.14135
 162.88600	  12.32730	  -0.14908
 163.04500	  12.32222	  -0.14784
 163.20400	  12.31406	  -0.13829
 163.36300	  12.31742	  -0.14671
 163.52100	  12.31511	  -0.14093
 163.68000	  12.32808	  -0.15101
 163.83900	  12.32372	  -0.14464
 163.99800	  12.31965	  -0.15307
 164.15600	  12.31558	  -0.13862
 164.31500	  12.31509	  -0.14760
 164.47400	  12.32640	  -0.15053
 164.63200	  12.32404	  -0.13829
 164.79200	  12.32247	  -0.13527
 164.95000	  12.32989	  -0.14433
 165.10800	  12.32317	  -0.14385
 165.26700	  12.31833	  -0.14279
 165.42500	  12.31623	  -0.14190
 165.58500	  12.32146	  -0.13510
 165.74300	  12.31809	  -0.13980
 165.90100	  12.32638	  -0.14520
 166.06000	  12.32372	  -0.14044
 166.21800	  12.32164	  -0.14112
 166.37600	  12.32122	  -0.14855
 166.53500	  12.32717	  -0.14557
 166.69300	  12.32986	  -0.14295
 166.85100	  12.32087	  -0.12981
 167.00900	  12.31594	  -0.13578
 167.16700	  12.31548	  -0.14562
 167.32500	  12.31417	  -0.14159
 167.48300	  12.31686	  -0.14282
 167.64100	  12.31844	  -0.14482
 167.79900	  12.31453	  -0.14558
 167.95700	  12.32581	  -0.15143
 168.11400	  12.31537	  -0.14099
 168.27200	  12.31508	  -0.14025
 168.42900	  12.32569	  -0.14363
 168.58600	  12.31779	  -0.14987
 168.74400	  12.32295	  -0.14354
 168.90100	  12.31131	  -0.14340
 169.05800	  12.31832	  -0.15178
 169.21500	  12.32120	  -0.14609
 169.37200	  12.32109	  -0.14492
 169.52900	  12.32898	  -0.14157
 169.68500	  12.32434	  -0.14783
 169.84200	  12.30813	  -0.13884
 169.99800	  12.32844	  -0.15031
 170.15500	  12.32009	  -0.13548
 170.31100	  12.32007	  -0.14029
 170.46700	  12.31994	  -0.14227
 170.62300	  12.30306	  -0.15217
 170.78000	  12.32979	  -0.15979
 170.93500	  12.31121	  -0.15135
 171.09000	  12.32599	  -0.14180
 171.24600	  12.31951	  -0.13493
 171.40100	  12.32314	  -0.14596
 171.55600	  12.31767	  -0.15535
 171.70900	  12.33316	  -0.13926
 171.86200	  12.32467	  -0.14270
 172.01400	  12.32529	  -0.14033
 172.16700	  12.31006	  -0.14663
 172.31900	  12.31715	  -0.14272
 172.47200	  12.31815	  -0.14780
 172.62400	  12.31975	  -0.14251
 172.77600	  12.33140	  -0.13435
 172.92800	  12.31804	  -0.13173
 173.08000	  12.31951	  -0.14389
 173.23300	  12.32258	  -0.14161
 173.38500	  12.32210	  -0.14000
 173.53600	  12.31752	  -0.12594
 173.68700	  12.32995	  -0.14963
 173.83800	  12.32978	  -0.14908
 173.98900	  12.32622	  -0.13851
 174.14100	  12.32531	  -0.14572
 174.29100	  12.33076	  -0.14323
 174.44200	  12.32560	  -0.15664
 174.59300	  12.32063	  -0.15029
 174.74300	  12.31644	  -0.13269
 174.89400	  12.30498	  -0.13639
 175.04400	  12.30901	  -0.13793
 175.19400	  12.32105	  -0.15076
 175.34400	  12.31948	  -0.14494
 175.49400	  12.31966	  -0.13314
 175.64300	  12.30922	  -0.13322
 175.79300	  12.31653	  -0.14513
 175.94200	  12.32625	  -0.14137
 176.09100	  12.32119	  -0.14451
 176.24000	  12.32510	  -0.14375
 176.38900	  12.32625	  -0.14046
 176.53800	  12.31942	  -0.15138
 176.68600	  12.32845	  -0.13467
 176.83500	  12.32417	  -0.14662
 176.98300	  12.32262	  -0.14687
 177.13100	  12.32803	  -0.15160
 177.27900	  12.31915	  -0.13645
 177.42700	  12.32652	  -0.13760
 177.57400	  12.31631	  -0.14821
 177.72200	  12.32346	  -0.14206
 177.87000	  12.32029	  -0.13822
 178.01700	  12.31520	  -0.13982
 178.16400	  12.31495	  -0.14704
 178.31100	  12.32602	  -0.13081
 178.45700	  12.31575	  -0.13412
 178.60400	  12.32818	  -0.13925
 178.75000	  12.32563	  -0.13993
 178.89600	  12.32945	  -0.13769
 179.04300	  12.33376	  -0.14005
 179.18900	  12.33086	  -0.12938
 179.33400	  12.33844	  -0.13418
 179.48000	  12.33684	  -0.13673
 179.62500	  12.31252	  -0.13454
 179.77000	  12.32328	  -0.14021
 179.91500	  12.31572	  -0.14949
 180.06000	  12.31971	  -0.14234
 180.20400	  12.32425	  -0.15221
 180.34900	  12.32308	  -0.13961
 180.49300	  12.32629	  -0.13866
 180.63800	  12.33020	  -0.14029
 180.78200	  12.32991	  -0.14807
 180.92500	  12.32642	  -0.14709
 181.06900	  12.31444	  -0.15217
 181.21200	  12.32413	  -0.13576
 181.35600	  12.32394	  -0.13715
 181.49900	  12.32722	  -0.14336
 181.64200	  12.32909	  -0.14377
 181.78400	  12.32917	  -0.14078
 181.92700	  12.31910	  -0.14008
 182.07000	  12.32229	  -0.13710
 182.21200	  12.32539	  -0.13423
 182.35400	  12.32174	  -0.14016
 182.49600	  12.32485	  -0.13259
 182.63800	  12.32732	  -0.14414
 182.77900	  12.32059	  -0.13968
 182.92000	  12.33212	  -0.14474
 183.06200	  12.32288	  -0.14407
 183.20200	  12.31991	  -0.13914
 183.34300	  12.32661	  -0.14397
 183.48400	  12.31609	  -0.13355
 183.62500	  12.32447	  -0.14397
 183.76500	  12.32885	  -0.14737
 183.90500	  12.32361	  -0.14086
 184.04500	  12.32973	  -0.13918
 184.18500	  12.32892	  -0.13374
 184.32500	  12.32273	  -0.14024
 184.46300	  12.32736	  -0.13197
 184.60200	  12.32517	  -0.13629
 184.73900	  12.32483	  -0.14291
 184.87600	  12.31917	  -0.13149
 185.01300	  12.32210	  -0.14245
 185.14900	  12.32408	  -0.14232
 185.28600	  12.33343	  -0.13382
 185.42200	  12.32269	  -0.14608
 185.55800	  12.32429	  -0.13870
 185.69400	  12.32374	  -0.13333
 185.83000	  12.31692	  -0.13843
 185.96500	  12.32527	  -0.13459
 186.10100	  12.33072	  -0.14385
 186.23600	  12.31938	  -0.15006
 186.37100	  12.32145	  -0.13857
 186.50600	  12.32327	  -0.13747
 186.64000	  12.32324	  -0.14437
 186.77500	  12.32164	  -0.13836
 186.90900	  12.32084	  -0.14269
 187.04300	  12.32287	  -0.13816
 187.17700	  12.32977	  -0.13141
 187.31100	  12.31952	  -0.14163
 187.44400	  12.32300	  -0.13624
 187.57700	  12.33195	  -0.13575
 187.71100	  12.31978	  -0.13738
 187.84400	  12.32157	  -0.14274
 187.97600	  12.31471	  -0.13532
 188.10900	  12.32879	  -0.13639
 188.24200	  12.32279	  -0.14182
 188.37400	  12.32991	  -0.13743
 188.50600	  12.32583	  -0.14462
 188.63800	  12.32305	  -0.14592
 188.77000	  12.32517	  -0.13591
 188.90200	  12.31828	  -0.14302
 189.03200	  12.32960	  -0.13845
 189.16400	  12.32016	  -0.13703
 189.29500	  12.32431	  -0.13146
 189.42600	  12.32054	  -0.13853
 189.55600	  12.32579	  -0.14795
 189.68700	  12.32900	  -0.13324
 189.81700	  12.32208	  -0.13770
 189.94700	  12.32144	  -0.13744
 190.07700	  12.32054	  -0.14333
 190.20600	  12.32692	  -0.14277
 190.33600	  12.32314	  -0.14580
 190.46500	  12.33098	  -0.13114
 190.59500	  12.32431	  -0.13887
 190.72300	  12.32063	  -0.14179
 190.85200	  12.31972	  -0.14010
 190.98100	  12.32554	  -0.13451
 191.10900	  12.32563	  -0.14541
 191.23700	  12.33328	  -0.13781
 191.36600	  12.32334	  -0.13308
 191.49300	  12.33300	  -0.14835
 191.62100	  12.33181	  -0.14135
 191.74900	  12.33128	  -0.14629
 191.87600	  12.33159	  -0.14174
 192.00300	  12.32577	  -0.13739
 192.13000	  12.32829	  -0.14272
 192.25600	  12.31403	  -0.13942
 192.38300	  12.32155	  -0.13656
 192.51000	  12.32393	  -0.13539
 192.63600	  12.32468	  -0.13831
 192.76200	  12.32323	  -0.13794
 192.88800	  12.33468	  -0.13706
 193.01400	  12.32761	  -0.13343
 193.13900	  12.32821	  -0.13925
 193.26400	  12.33296	  -0.14256
 193.39000	  12.32516	  -0.13263
 193.51400	  12.32959	  -0.13729
 193.63900	  12.32682	  -0.14168
 193.76400	  12.32630	  -0.13913
 193.88800	  12.31874	  -0.12862
 194.01200	  12.32106	  -0.13277
 194.13700	  12.33207	  -0.14042
 194.26000	  12.32319	  -0.14129
 194.38400	  12.32231	  -0.14342
 194.50700	  12.32727	  -0.13750
 194.63100	  12.32855	  -0.13148
 194.75400	  12.32797	  -0.13321
 194.87700	  12.32767	  -0.13470
 194.99900	  12.32544	  -0.13552
 195.12200	  12.32728	  -0.14046
 195.24400	  12.33621	  -0.14800
 195.36600	  12.34045	  -0.14717
 195.48800	  12.33052	  -0.14508
 195.61100	  12.32198	  -0.14016
 195.73300	  12.32062	  -0.12821
 195.85400	  12.33180	  -0.13084
 195.97500	  12.31941	  -0.12814
 196.09600	  12.32430	  -0.12989
 196.21700	  12.33141	  -0.13629
 196.33800	  12.33001	  -0.14062
 196.45900	  12.33317	  -0.13542
 196.57900	  12.32654	  -0.14009
 196.69900	  12.32064	  -0.13411
 196.81900	  12.32066	  -0.12976
 196.93900	  12.33052	  -0.14219
 197.05900	  12.32450	  -0.13245
 197.17800	  12.32815	  -0.12632
 197.29800	  12.32477	  -0.13537
 197.41700	  12.32312	  -0.13428
 197.53600	  12.32435	  -0.13560
 197.65500	  12.33501	  -0.12253
 197.77300	  12.33403	  -0.13228
 197.89100	  12.31968	  -0.13694
 198.01000	  12.32278	  -0.13864
 198.12800	  12.32626	  -0.13329
 198.24500	  12.31813	  -0.13371
 198.36300	  12.32938	  -0.12838
 198.48100	  12.33530	  -0.12922
 198.59700	  12.33466	  -0.13062
 198.71300	  12.31829	  -0.13677
 198.82800	  12.32672	  -0.14075
 198.94400	  12.32931	  -0.13286
 199.05900	  12.33581	  -0.13539
 199.17400	  12.33321	  -0.15204
 199.28800	  12.32139	  -0.14270
 199.40300	  12.32637	  -0.13512
 199.51700	  12.33757	  -0.13142
 199.63200	  12.33673	  -0.13282
 199.74600	  12.33477	  -0.14344
 199.86000	  12.32942	  -0.14602
 199.97400	  12.32633	  -0.12708
 200.08800	  12.33370	  -0.14164
 200.20100	  12.32436	  -0.14066
 200.31400	  12.33348	  -0.13646
 200.42700	  12.33418	  -0.13182
 200.54000	  12.33638	  -0.14468
 200.65300	  12.32922	  -0.13476
 200.76500	  12.32948	  -0.13860
 200.87800	  12.32859	  -0.13143
 200.99000	  12.33102	  -0.12790
 201.10200	  12.33147	  -0.13782
 201.21400	  12.33686	  -0.14157
 201.32600	  12.33420	  -0.13937
 201.43700	  12.32672	  -0.14108
 201.54900	  12.32334	  -0.14203
 201.66000	  12.33924	  -0.12970
 201.77100	  12.32516	  -0.13348
 201.88200	  12.33858	  -0.13163
 201.99200	  12.33623	  -0.13667
 202.10300	  12.33720	  -0.13472
 202.21300	  12.32718	  -0.13830
 202.32400	  12.31466	  -0.12959
 202.43300	  12.33742	  -0.13383
 202.54300	  12.33705	  -0.13665
 202.65300	  12.34169	  -0.13816
 202.76300	  12.33011	  -0.13489
 202.87200	  12.33523	  -0.13623
 202.98100	  12.32296	  -0.12225
 203.09000	  12.32906	  -0.13452
 203.19900	  12.33066	  -0.14079
 203.30800	  12.33373	  -0.13850
 203.41600	  12.33642	  -0.13356
 203.52400	  12.33478	  -0.14012
 203.63300	  12.32691	  -0.13601
 203.74100	  12.33370	  -0.13467
 203.84900	  12.33466	  -0.13805
 203.95600	  12.32740	  -0.12536
 204.06400	  12.33152	  -0.13418
 204.17100	  12.32874	  -0.12720
 204.27800	  12.32209	  -0.13040
 204.38500	  12.33052	  -0.13588
 204.49200	  12.32767	  -0.13276
 204.59900	  12.32585	  -0.13961
 204.70500	  12.32537	  -0.13605
 204.81100	  12.33695	  -0.13596
 204.91700	  12.34013	  -0.14231
 205.02300	  12.33976	  -0.13177
 205.12900	  12.33582	  -0.13328
 205.23500	  12.32575	  -0.13614
 205.34000	  12.34037	  -0.13767
 205.44500	  12.33533	  -0.13568
 205.55000	  12.33047	  -0.13071
 205.65500	  12.33378	  -0.13593
 205.76000	  12.32825	  -0.13407
 205.86400	  12.33755	  -0.13234
 205.96900	  12.33673	  -0.13215
 206.07300	  12.34296	  -0.13365
 206.17700	  12.32919	  -0.13217
 206.28100	  12.32723	  -0.13905
 206.38500	  12.34307	  -0.13657
 206.48800	  12.33106	  -0.13093
 206.59100	  12.33701	  -0.13789
 206.69500	  12.33779	  -0.13872
 206.79800	  12.33495	  -0.14110
 206.90000	  12.33821	  -0.13877
 207.00300	  12.32850	  -0.13629
 207.10500	  12.32557	  -0.13343
 207.20700	  12.32947	  -0.13354
 207.30900	  12.32991	  -0.13163
 207.41100	  12.33269	  -0.13443
 207.51300	  12.33333	  -0.13804
 207.61500	  12.33080	  -0.13139
 207.71600	  12.33122	  -0.12849
 207.81800	  12.33150	  -0.13310
 207.91900	  12.33288	  -0.13871
 208.02000	  12.33285	  -0.13113
 208.12100	  12.31966	  -0.13432
 208.22100	  12.32662	  -0.13297
 208.32100	  12.32972	  -0.13576
 208.42200	  12.32763	  -0.13174
 208.52200	  12.32550	  -0.13465
 208.62200	  12.33523	  -0.14516
 208.72200	  12.32766	  -0.13734
 208.82100	  12.34316	  -0.13811
 208.92100	  12.33538	  -0.13615
 209.02000	  12.33748	  -0.13387
 209.11900	  12.33200	  -0.13706
 209.21800	  12.33060	  -0.12120
 209.31700	  12.32919	  -0.12595
 209.41600	  12.33064	  -0.13484
 209.51400	  12.32818	  -0.13757
 209.61300	  12.33223	  -0.13552
 209.71100	  12.33480	  -0.13387
 209.80900	  12.33302	  -0.12499
 209.90700	  12.32015	  -0.12555
 210.00500	  12.32885	  -0.13255
 210.10200	  12.33972	  -0.13159
 210.19900	  12.34287	  -0.13658
 210.29600	  12.34332	  -0.13832
 210.39300	  12.34181	  -0.14177
 210.49100	  12.34464	  -0.13474
 210.58700	  12.32904	  -0.13872
 210.68400	  12.33218	  -0.13296
 210.78000	  12.33358	  -0.13491
 210.87600	  12.33123	  -0.13275
 210.97300	  12.33952	  -0.13014
 211.06900	  12.33780	  -0.13072
 211.16500	  12.33877	  -0.13067
 211.26000	  12.33516	  -0.13603
 211.35600	  12.33149	  -0.13382
 211.45100	  12.33255	  -0.13421
 211.54700	  12.34038	  -0.13533
 211.64200	  12.34040	  -0.13799
 211.73700	  12.34376	  -0.13326
 211.83100	  12.33429	  -0.14011
 211.92600	  12.32102	  -0.13661
 212.02000	  12.33741	  -0.13452
 212.11500	  12.32920	  -0.13516
 212.20900	  12.34348	  -0.13543
 212.30300	  12.33227	  -0.13258
 212.39700	  12.33444	  -0.13059
 212.49100	  12.33268	  -0.12874
 212.58500	  12.33264	  -0.13924
 212.67800	  12.34384	  -0.13899
 212.77100	  12.34138	  -0.13318
 212.86500	  12.34307	  -0.13791
 212.95800	  12.35383	  -0.12988
 213.05600	  12.33460	  -0.13249
 213.14400	  12.33514	  -0.12261
 213.24000	  12.34349	  -0.12564
 213.33200	  12.33367	  -0.12431
 213.42400	  12.33104	  -0.12722
 213.51500	  12.33749	  -0.13654
 213.60600	  12.33443	  -0.13644
 213.69700	  12.33742	  -0.14237
 213.78800	  12.33670	  -0.13884
 213.87900	  12.33970	  -0.13203
 213.96900	  12.33976	  -0.13041
 214.05900	  12.34051	  -0.13405
 214.15000	  12.34526	  -0.14104
 214.24000	  12.33675	  -0.14371
 214.33000	  12.35313	  -0.14703
 214.42000	  12.34298	  -0.14160
 214.50900	  12.34177	  -0.13966
 214.60000	  12.33292	  -0.13154
 214.68900	  12.34021	  -0.13197
 214.77900	  12.34229	  -0.12439
 214.86800	  12.34599	  -0.11991
 214.95800	  12.33771	  -0.12291
 215.04700	  12.33855	  -0.13059
 215.13600	  12.33913	  -0.13368
 215.22500	  12.35162	  -0.12798
 215.31500	  12.34381	  -0.12722
 215.40300	  12.34205	  -0.12650
 215.49200	  12.34652	  -0.14190
 215.58100	  12.34554	  -0.14196
 215.67000	  12.34867	  -0.14112
 215.75900	  12.34027	  -0.12472
 215.84700	  12.33612	  -0.13176
 215.93600	  12.33584	  -0.13217
 216.02500	  12.34450	  -0.12312
 216.11400	  12.34195	  -0.13458
 216.20200	  12.33406	  -0.13612
 216.29100	  12.32994	  -0.13572
 216.38100	  12.33845	  -0.14599
 216.46900	  12.33725	  -0.13301
 216.55800	  12.33895	  -0.12839
 216.64700	  12.34168	  -0.12893
 216.73700	  12.33682	  -0.14393
 216.82600	  12.33754	  -0.13149
 216.91600	  12.33103	  -0.13260
 217.00600	  12.33781	  -0.12771
 217.09600	  12.33409	  -0.13567
 217.18600	  12.33900	  -0.13471
 217.27600	  12.33625	  -0.12475
 217.36700	  12.34569	  -0.13522
 217.45700	  12.33813	  -0.13944
 217.54800	  12.34305	  -0.13466
 217.64000	  12.34392	  -0.13004
 217.73200	  12.33799	  -0.13664
 217.82400	  12.33524	  -0.13919
 217.91600	  12.34114	  -0.13574
 218.01000	  12.34740	  -0.13442
 218.10300	  12.34323	  -0.12431
 218.19600	  12.34690	  -0.13471
 218.28900	  12.34633	  -0.14369
 218.38400	  12.33671	  -0.13743
 218.47800	  12.34611	  -0.13286
 218.57300	  12.34727	  -0.12657
 218.66800	  12.34346	  -0.12895
 218.76300	  12.32885	  -0.13649
 218.85800	  12.33013	  -0.13382
 218.95500	  12.33691	  -0.13896
 219.05100	  12.33791	  -0.13386
 219.14800	  12.33814	  -0.13491
 219.24600	  12.33840	  -0.13196
 219.34400	  12.34298	  -0.13867
 219.44200	  12.33557	  -0.14714
 219.54100	  12.34027	  -0.13792
 219.64000	  12.34791	  -0.13043
 219.74000	  12.34856	  -0.15122
 219.84000	  12.34665	  -0.13954
 219.94000	  12.33598	  -0.13040
 220.04100	  12.34098	  -0.13312
 220.14200	  12.34103	  -0.12805
 220.24500	  12.35159	  -0.13391
 220.34700	  12.34668	  -0.13773
 220.45000	  12.34446	  -0.13723
 220.55400	  12.35092	  -0.13531
 220.65800	  12.34037	  -0.12833
 220.76200	  12.33893	  -0.12707
 220.86800	  12.35007	  -0.13152
 220.97300	  12.34205	  -0.12966
 221.08000	  12.34021	  -0.12242
 221.18800	  12.34070	  -0.13198
 221.28800	  12.33982	  -0.13238
 221.39400	  12.34514	  -0.12955
 221.50200	  12.34354	  -0.14131
 221.61200	  12.33839	  -0.13136
 221.72100	  12.34197	  -0.13798
 221.83100	  12.33107	  -0.13422
 221.94100	  12.33098	  -0.12410
 222.05200	  12.34245	  -0.12720
 222.16200	  12.33920	  -0.12911
 222.27400	  12.33973	  -0.13602
 222.38600	  12.33517	  -0.14263
 222.49900	  12.33398	  -0.12974
 222.61200	  12.34061	  -0.13376
 222.72500	  12.33583	  -0.13153
 222.83900	  12.33259	  -0.13374
 222.95300	  12.34189	  -0.13851
 223.06800	  12.33847	  -0.13298
 223.18300	  12.34015	  -0.13263
 223.29900	  12.33954	  -0.12357
 223.41400	  12.34689	  -0.12681
 223.53000	  12.33831	  -0.12753
 223.64700	  12.33965	  -0.12958
 223.76400	  12.35155	  -0.13340
 223.88100	  12.34198	  -0.13042
 223.99900	  12.34433	  -0.13380
 224.11700	  12.33794	  -0.13192
 224.23500	  12.33138	  -0.13914
 224.35400	  12.33224	  -0.13113
 224.47300	  12.34637	  -0.13539
 224.59300	  12.35450	  -0.13264
 224.71200	  12.34199	  -0.13383
 224.83200	  12.34342	  -0.13269
 224.95100	  12.34182	  -0.13045
 225.07300	  12.33329	  -0.12568
 225.19300	  12.33993	  -0.12826
 225.31300	  12.34309	  -0.12744
 225.43500	  12.34507	  -0.13792
 225.55700	  12.34273	  -0.12672
 225.67800	  12.35288	  -0.12180
 225.80000	  12.33448	  -0.12567
 225.92200	  12.33617	  -0.13233
 226.04400	  12.33907	  -0.11812
 226.16600	  12.34161	  -0.12663
 226.28900	  12.33352	  -0.13500
 226.41200	  12.33780	  -0.13228
 226.53500	  12.33431	  -0.12937
 226.65800	  12.34400	  -0.12964
 226.78200	  12.33843	  -0.13161
 226.90500	  12.33288	  -0.12445
 227.02900	  12.33409	  -0.13690
 227.15200	  12.34361	  -0.13306
 227.27600	  12.34711	  -0.13440
 227.40000	  12.34334	  -0.13452
 227.52400	  12.34233	  -0.12979
 227.64800	  12.34548	  -0.13566
 227.77200	  12.34745	  -0.13224
 227.89600	  12.34786	  -0.13405
 228.02000	  12.34352	  -0.14125
 228.14300	  12.34049	  -0.13053
 228.26700	  12.32982	  -0.11778
 228.39100	  12.33928	  -0.12625
 228.51300	  12.33784	  -0.12415
 228.63600	  12.34668	  -0.12580
 228.76000	  12.34270	  -0.12239
 228.88300	  12.34969	  -0.12068
 229.00600	  12.34277	  -0.14207
 229.13000	  12.34356	  -0.13344
 229.25300	  12.34323	  -0.13375
 229.37700	  12.33616	  -0.12909
 229.50100	  12.33764	  -0.13355
 229.62400	  12.34829	  -0.12854
 229.74800	  12.33935	  -0.12669
 229.87200	  12.33876	  -0.13672
 229.99500	  12.34387	  -0.13191
 230.11800	  12.33860	  -0.13729
 230.24200	  12.34495	  -0.13141
 230.36500	  12.34994	  -0.12604
 230.48800	  12.34311	  -0.12199
 230.61200	  12.34936	  -0.13513
 230.73600	  12.35704	  -0.12795
 230.85800	  12.33709	  -0.13219
 230.98200	  12.34632	  -0.12590
 231.10500	  12.34838	  -0.12307
 231.22800	  12.33440	  -0.13806
 231.35200	  12.34260	  -0.12991
 231.47500	  12.34743	  -0.12864
 231.59800	  12.34401	  -0.13480
 231.72100	  12.34370	  -0.12877
 231.84400	  12.34784	  -0.11738
 231.96600	  12.35069	  -0.12915
 232.08900	  12.35434	  -0.13569
 232.21200	  12.35157	  -0.12134
 232.33500	  12.35226	  -0.12346
 232.45700	  12.33878	  -0.13174
 232.57900	  12.34209	  -0.12802
 232.70200	  12.34337	  -0.13231
 232.82400	  12.34424	  -0.12873
 232.94700	  12.34887	  -0.13403
 233.06900	  12.34223	  -0.12839
 233.19000	  12.34627	  -0.12842
 233.31300	  12.34918	  -0.11795
 233.43400	  12.34703	  -0.12969
 233.55600	  12.34741	  -0.12150
 233.67700	  12.35535	  -0.12572
 233.79900	  12.34600	  -0.13122
 233.92000	  12.35304	  -0.12724
 234.04100	  12.34415	  -0.12048
 234.16200	  12.34640	  -0.12970
 234.28300	  12.34694	  -0.13193
 234.40400	  12.34638	  -0.13275
 234.52500	  12.34391	  -0.13594
 234.64500	  12.34802	  -0.13767
 234.76600	  12.34251	  -0.13228
 234.88600	  12.34395	  -0.12965
 235.00600	  12.34141	  -0.12149
 235.12600	  12.34632	  -0.13073
 235.24500	  12.33578	  -0.13976
 235.36500	  12.33648	  -0.13667
 235.48400	  12.34702	  -0.12427
 235.60400	  12.35099	  -0.12495
 235.72300	  12.35847	  -0.13104
 235.84200	  12.35755	  -0.12759
 235.96100	  12.35354	  -0.12973
 236.08000	  12.35233	  -0.13484
 236.19800	  12.35288	  -0.12446
 236.31700	  12.35586	  -0.13013
 236.43500	  12.34862	  -0.13458
 236.55300	  12.35384	  -0.12160
 236.67100	  12.34658	  -0.11624
 236.78900	  12.35322	  -0.11875
 236.90600	  12.35076	  -0.12501
 237.02400	  12.35197	  -0.13027
 237.14100	  12.34947	  -0.12478
 237.25800	  12.35806	  -0.12651
 237.37500	  12.36494	  -0.12775
 237.49200	  12.35248	  -0.13580
 237.60900	  12.33903	  -0.13708
 237.72500	  12.34031	  -0.12411
 237.84100	  12.34408	  -0.12806
 237.95700	  12.35443	  -0.12971
 238.07300	  12.35089	  -0.13523
 238.18900	  12.35627	  -0.12759
 238.30500	  12.35472	  -0.12431
 238.41900	  12.34460	  -0.11802
 238.53500	  12.35220	  -0.12164
 238.64900	  12.35395	  -0.11842
 238.76500	  12.36266	  -0.12394
 238.87900	  12.34715	  -0.12813
 238.99400	  12.35583	  -0.13193
 239.10800	  12.35376	  -0.12664
 239.22200	  12.34783	  -0.13451
 239.33600	  12.35049	  -0.13375
 239.45000	  12.35271	  -0.13672
 239.56300	  12.35462	  -0.13360
 239.67600	  12.35304	  -0.12307
 239.79000	  12.35289	  -0.13226
 239.90300	  12.35608	  -0.13505
 240.01500	  12.35528	  -0.13109
 240.12800	  12.35655	  -0.13121
 240.24000	  12.36096	  -0.12726
 240.35300	  12.35517	  -0.12711
 240.46500	  12.35561	  -0.12446
 240.57600	  12.36590	  -0.12129
 240.68800	  12.36019	  -0.12012
 240.80000	  12.35470	  -0.12948
 240.91100	  12.35637	  -0.12953
 241.02200	  12.35333	  -0.12782
 241.13300	  12.35989	  -0.12860
 241.24400	  12.35654	  -0.13419
 241.35500	  12.35689	  -0.12598
 241.46500	  12.35160	  -0.13423
 241.57500	  12.35330	  -0.13317
 241.68500	  12.36047	  -0.13263
 241.79500	  12.36489	  -0.12074
 241.90400	  12.36258	  -0.12582
 242.01300	  12.36267	  -0.13266
 242.12300	  12.35525	  -0.12817
 242.23200	  12.36143	  -0.12903
 242.34100	  12.35819	  -0.13974
 242.44900	  12.36634	  -0.13401
 242.55800	  12.35287	  -0.12070
 242.66600	  12.35394	  -0.13042
 242.77400	  12.35818	  -0.13294
 242.88200	  12.35867	  -0.13237
 242.99000	  12.35681	  -0.13122
 243.09700	  12.35584	  -0.13799
 243.20400	  12.35862	  -0.12429
 243.31100	  12.35315	  -0.12002
 243.41800	  12.35659	  -0.13400
 243.52500	  12.35913	  -0.12167
 243.63100	  12.35059	  -0.11262
 243.73700	  12.36409	  -0.12849
 243.84300	  12.35529	  -0.12565
 243.94900	  12.35719	  -0.12588
 244.05400	  12.36193	  -0.13019
 244.15800	  12.36234	  -0.13353
 244.26300	  12.35984	  -0.12132
 244.36700	  12.35821	  -0.13064
 244.47100	  12.36349	  -0.12101
 244.57300	  12.35628	  -0.12563
 244.67700	  12.36815	  -0.13332
 244.78000	  12.36985	  -0.12349
 244.88300	  12.35068	  -0.13148
 244.98600	  12.36344	  -0.12757
 245.08800	  12.36225	  -0.12058
 245.19100	  12.36250	  -0.11796
 245.29300	  12.35772	  -0.12524
 245.39500	  12.36046	  -0.13287
 245.49700	  12.36313	  -0.12346
 245.59800	  12.37002	  -0.12431
 245.70000	  12.37110	  -0.12409
 245.80100	  12.36032	  -0.13239
 245.90200	  12.36019	  -0.12735
 246.00300	  12.35779	  -0.12243
 246.10400	  12.35931	  -0.13396
 246.20400	  12.36370	  -0.12643
 246.30400	  12.37576	  -0.12539
 246.40400	  12.36884	  -0.13057
 246.50400	  12.37276	  -0.12651
 246.60400	  12.37823	  -0.12894
 246.70300	  12.36870	  -0.12594
 246.80200	  12.36776	  -0.12539
 246.90100	  12.36736	  -0.12270
 247.00000	  12.37100	  -0.12438
 247.09900	  12.37263	  -0.12666
 247.19700	  12.36891	  -0.13536
 247.29500	  12.36142	  -0.13095
 247.39400	  12.37170	  -0.13183
 247.49200	  12.36333	  -0.13043
 247.58900	  12.36635	  -0.12970
 247.68600	  12.35357	  -0.12453
 247.78300	  12.36530	  -0.11824
 247.88000	  12.36451	  -0.11554
 247.97800	  12.36648	  -0.12094
 248.07400	  12.35669	  -0.13501
 248.17100	  12.35974	  -0.13223
 248.26700	  12.36959	  -0.12018
 248.36300	  12.36844	  -0.12506
 248.45900	  12.37227	  -0.13891
 248.55500	  12.36891	  -0.12594
 248.65000	  12.35643	  -0.13132
 248.74500	  12.36929	  -0.13464
 248.84000	  12.37058	  -0.13016
 248.93500	  12.36343	  -0.13583
 249.02900	  12.36470	  -0.13415
 249.12400	  12.36948	  -0.13503
 249.21800	  12.35931	  -0.12801
 249.31200	  12.36792	  -0.12143
 249.40700	  12.38100	  -0.13172
 249.50100	  12.37013	  -0.12486
 249.59300	  12.37772	  -0.12596
 249.68700	  12.37361	  -0.13443
 249.78000	  12.38497	  -0.12220
 249.87300	  12.38111	  -0.12511
 249.96600	  12.38258	  -0.13856
 250.06400	  12.37197	  -0.13665
 250.15200	  12.37501	  -0.13552
 250.24800	  12.36766	  -0.13173
 250.34000	  12.36706	  -0.12604
 250.43200	  12.37481	  -0.12947
 250.52300	  12.36851	  -0.14443
 250.61600	  12.36956	  -0.11815
 250.70700	  12.37058	  -0.12798
 250.79800	  12.37267	  -0.12628
 250.88900	  12.36484	  -0.12569
 250.98000	  12.36191	  -0.13068
 251.07100	  12.36115	  -0.12958
 251.16100	  12.36755	  -0.12313
 251.25100	  12.36671	  -0.13523
 251.34100	  12.37511	  -0.12940
 251.43000	  12.36996	  -0.13367
 251.52000	  12.37667	  -0.12810
 251.60900	  12.37258	  -0.11922
 251.69800	  12.37040	  -0.12685
 251.78700	  12.37437	  -0.14035
 251.87700	  12.37347	  -0.13055
 251.96500	  12.37520	  -0.13038
 252.05400	  12.37363	  -0.13370
 252.14200	  12.37504	  -0.13291
 252.23000	  12.36390	  -0.12938
 252.31900	  12.36636	  -0.11916
 252.40600	  12.37672	  -0.12317
 252.49400	  12.37286	  -0.13041
 252.58100	  12.37075	  -0.13422
 252.66800	  12.37978	  -0.11883
 252.75500	  12.37298	  -0.12272
 252.84200	  12.36810	  -0.12308
 252.92800	  12.37121	  -0.12575
 253.01500	  12.37514	  -0.12203
 253.10000	  12.36750	  -0.12977
 253.18700	  12.37310	  -0.13991
 253.27300	  12.37768	  -0.13123
 253.35800	  12.38154	  -0.13479
 253.44300	  12.38004	  -0.13103
 253.52900	  12.36919	  -0.12543
 253.61300	  12.37064	  -0.13432
 253.69800	  12.37792	  -0.12982
 253.78300	  12.37177	  -0.13249
 253.86800	  12.37421	  -0.12600
 253.95200	  12.38468	  -0.13103
 254.03600	  12.37274	  -0.12694
 254.12100	  12.37625	  -0.13593
 254.20400	  12.37521	  -0.13064
 254.28800	  12.36622	  -0.12973
 254.37200	  12.37345	  -0.13513
 254.45600	  12.37170	  -0.13351
 254.54000	  12.37879	  -0.12041
 254.62200	  12.37527	  -0.11478
 254.70600	  12.37662	  -0.11462
 254.78900	  12.37345	  -0.12342
 254.87100	  12.37900	  -0.12975
 254.95400	  12.37870	  -0.12728
 255.03600	  12.37565	  -0.13229
 255.11800	  12.37649	  -0.12261
 255.20000	  12.36470	  -0.12008
 255.28200	  12.37809	  -0.12423
 255.36400	  12.37950	  -0.12064
 255.44600	  12.37535	  -0.12277
 255.52700	  12.38246	  -0.11970
 255.60900	  12.37956	  -0.13645
 255.69000	  12.37360	  -0.12934
 255.77100	  12.36417	  -0.12682
 255.85200	  12.36567	  -0.13482
 255.93200	  12.37257	  -0.12444
 256.01300	  12.37813	  -0.13073
 256.09300	  12.38149	  -0.13650
 256.17400	  12.37852	  -0.12805
 256.25500	  12.38900	  -0.12448
 256.33500	  12.37863	  -0.12042
 256.41500	  12.37546	  -0.11608
 256.49600	  12.37427	  -0.12213
 256.57600	  12.37747	  -0.11990
 256.65500	  12.37994	  -0.13458
 256.73500	  12.37627	  -0.11936
 256.81400	  12.37864	  -0.12902
 256.89400	  12.38187	  -0.12627
 256.97400	  12.37388	  -0.13309
 257.05300	  12.37266	  -0.13476
 257.13200	  12.38724	  -0.12848
 257.21100	  12.37405	  -0.12109
 257.29000	  12.38057	  -0.12803
 257.36900	  12.38152	  -0.12905
 257.44700	  12.38377	  -0.12575
 257.52500	  12.38665	  -0.12858
 257.60400	  12.37884	  -0.13090
 257.68200	  12.37978	  -0.13070
 257.76100	  12.37354	  -0.13822
 257.83900	  12.37973	  -0.13517
 257.91700	  12.38024	  -0.13345
 257.99500	  12.37691	  -0.12433
 258.07200	  12.38056	  -0.12111
 258.15000	  12.38535	  -0.13282
 258.22800	  12.38368	  -0.12591
 258.30500	  12.37083	  -0.12960
 258.38300	  12.37755	  -0.12127
 258.46100	  12.37864	  -0.12479
 258.53800	  12.37918	  -0.13808
 258.61500	  12.36421	  -0.13168
 258.69200	  12.37417	  -0.12710
 258.76900	  12.37487	  -0.13311
 258.84600	  12.37248	  -0.13125
 258.92300	  12.36590	  -0.13620
 258.99900	  12.37707	  -0.13077
 259.07600	  12.37960	  -0.12573
 259.15200	  12.38890	  -0.12462
 259.22800	  12.37467	  -0.12304
 259.30500	  12.38242	  -0.11937
 259.38100	  12.37257	  -0.12204
 259.45700	  12.38104	  -0.12808
 259.53400	  12.37789	  -0.11935
 259.61000	  12.37835	  -0.12253
 259.68500	  12.36749	  -0.12300
 259.76000	  12.36904	  -0.12986
 259.83600	  12.37373	  -0.13345
 259.91200	  12.36867	  -0.13235
 259.98800	  12.37979	  -0.14226
 260.06400	  12.38106	  -0.13909
 260.13900	  12.38034	  -0.12612
 260.21400	  12.37680	  -0.11837
 260.28900	  12.37888	  -0.12010
 260.36500	  12.38063	  -0.13104
 260.44000	  12.37655	  -0.12703
 260.51500	  12.37563	  -0.12373
 260.59000	  12.38884	  -0.12892
 260.66500	  12.38411	  -0.12245
 260.74000	  12.38384	  -0.13321
 260.81500	  12.37602	  -0.12658
 260.89000	  12.39066	  -0.12878
 260.96500	  12.37737	  -0.12929
 261.03900	  12.38512	  -0.12739
 261.11300	  12.38056	  -0.12655
 261.18800	  12.37759	  -0.12178
 261.26200	  12.38490	  -0.12183
 261.33600	  12.38286	  -0.13094
 261.41000	  12.38000	  -0.12504
 261.48400	  12.37891	  -0.12105
 261.55900	  12.37509	  -0.12720
 261.63300	  12.38470	  -0.13264
 261.70700	  12.39551	  -0.13538
 261.78100	  12.38323	  -0.13256
 261.85500	  12.38338	  -0.11916
 261.93000	  12.37812	  -0.12412
 262.00400	  12.37370	  -0.12786
 262.07800	  12.38734	  -0.12519
 262.15300	  12.37673	  -0.12264
 262.22700	  12.38394	  -0.12533
 262.30200	  12.38065	  -0.13176
 262.37700	  12.38512	  -0.13519
 262.45200	  12.39413	  -0.13129
 262.52700	  12.39028	  -0.12280
 262.60200	  12.39007	  -0.13613
 262.67700	  12.39314	  -0.14026
 262.75200	  12.38533	  -0.13413
 262.82700	  12.38067	  -0.12983
 262.90300	  12.38686	  -0.12940
 262.97800	  12.39462	  -0.12259
 263.05400	  12.39068	  -0.12159
 263.12900	  12.38952	  -0.12654
 263.20600	  12.39147	  -0.11996
 263.28200	  12.38244	  -0.12368
 263.35800	  12.38794	  -0.12519
 263.43400	  12.38023	  -0.12044
 263.51100	  12.38578	  -0.12676
 263.58800	  12.37329	  -0.12929
 263.66400	  12.38222	  -0.12061
 263.74100	  12.38565	  -0.12640
 263.81800	  12.39833	  -0.12061
 263.89500	  12.38271	  -0.12446
 263.97300	  12.38683	  -0.12285
 264.05000	  12.37505	  -0.12955
 264.12800	  12.38324	  -0.13010
 264.20600	  12.37971	  -0.11759
 264.28400	  12.37987	  -0.12145
 264.36200	  12.37462	  -0.12792
 264.44000	  12.38265	  -0.12103
 264.51800	  12.37847	  -0.12632
 264.59700	  12.38049	  -0.12911
 264.67500	  12.38375	  -0.12703
 264.75500	  12.38674	  -0.12278
 264.83400	  12.38689	  -0.12173
 264.91300	  12.38932	  -0.12549
 264.99300	  12.39082	  -0.13083
 265.07200	  12.37309	  -0.14022
 265.15200	  12.38495	  -0.13567
 265.23200	  12.38541	  -0.12102
 265.31200	  12.38196	  -0.11929
 265.39200	  12.38387	  -0.12118
 265.47300	  12.39078	  -0.12089
 265.55400	  12.38772	  -0.12282
 265.63400	  12.38518	  -0.12051
 265.71600	  12.38834	  -0.12505
 265.79700	  12.38307	  -0.11519
 265.87800	  12.39870	  -0.13688
 265.95900	  12.38044	  -0.12507
 266.04100	  12.38497	  -0.12974
 266.12300	  12.38442	  -0.12782
 266.20500	  12.38668	  -0.12059
 266.28700	  12.37791	  -0.12660
 266.36900	  12.38100	  -0.12501
 266.45200	  12.38492	  -0.12645
 266.53400	  12.38681	  -0.11889
 266.61700	  12.38799	  -0.11998
 266.70000	  12.37780	  -0.12148
 266.78300	  12.38329	  -0.12767
 266.86700	  12.39201	  -0.12968
 266.95000	  12.38851	  -0.12516
 267.03400	  12.38860	  -0.13295
 267.11700	  12.38423	  -0.12412
 267.20100	  12.38691	  -0.12316
 267.28500	  12.38314	  -0.12936
 267.36900	  12.38722	  -0.13042
 267.45400	  12.38926	  -0.13718
 267.53800	  12.38888	  -0.13030
 267.62300	  12.38979	  -0.13160
 267.70800	  12.38492	  -0.11806
 267.79300	  12.38240	  -0.11962
 267.87800	  12.37752	  -0.13216
 267.96400	  12.39033	  -0.13483
 268.04900	  12.39964	  -0.12404
 268.13400	  12.40264	  -0.13028
 268.22000	  12.39308	  -0.14109
 268.30600	  12.38614	  -0.13585
 268.39200	  12.39430	  -0.13471
 268.47800	  12.38405	  -0.12618
 268.56300	  12.40260	  -0.13050
 268.65000	  12.39376	  -0.12365
 268.73500	  12.39350	  -0.12643
 268.82200	  12.39252	  -0.12849
 268.90800	  12.38287	  -0.13044
 268.99500	  12.38614	  -0.13258
 269.08100	  12.38917	  -0.13170
 269.16800	  12.39411	  -0.13202
 269.25400	  12.39750	  -0.12555
 269.34100	  12.39426	  -0.13149
 269.42700	  12.39407	  -0.12890
 269.51400	  12.39756	  -0.12717
 269.60000	  12.38948	  -0.13084
 269.68700	  12.39381	  -0.13143
 269.77300	  12.39034	  -0.13203
 269.86000	  12.39218	  -0.13468
 269.94600	  12.39610	  -0.12745
 270.03200	  12.38607	  -0.12135
 270.11600	  12.39008	  -0.12511
